,index,acc_x,acc_y,acc_z,gyr_x,gyr_y,gyr_z
0,23000,-0.445124127139191,1.273546255502011,10.851279766786702,35.2756032536645,55.376219390326014,28.085783721800336
1,23001,-0.3592743467010825,1.1730428004343276,11.814882780827359,24.672664161020464,62.27178704271223,24.677493752798583
2,23002,-0.03719942593159934,1.8988564624032778,12.383258515377177,14.603583758442886,72.90737515197907,24.060133369446206
3,23003,0.0870114788846457,1.9090803516090042,13.152888859741507,2.813536008152413,84.99552496211997,18.574139610612356
4,23004,-0.023941000599630988,0.8313178476235736,14.551651673878501,-10.126223324268585,99.45105610851914,11.462911216734028
5,23005,-0.0933188264335387,0.020931211554365555,16.13993580501012,-13.381095634706863,116.13543227414576,12.126765874521947
6,23006,0.3093567027337191,-0.22982153843741293,17.25760772655979,-6.389190813675978,141.78144673487705,9.112052276277565
7,23007,0.1545499864760875,-0.1856370038683589,17.681627641576604,-7.871966185310663,167.94741873660502,12.257905559715802
8,23008,0.7520965838625798,1.0269023011696317,17.93524604896221,-7.631253679658208,197.75051821083923,8.139173076937407
9,23009,1.6016428878088314,1.2872929196196967,20.547401098022313,-23.550822180151375,228.0926914539413,0.4487175749041563
10,23010,1.6979781218469883,-0.902851575256827,23.651825960644864,-31.35292511141706,271.863578768974,-4.002387425269604
11,23011,1.9954105686365444,-3.8402793906842168,27.49507407894953,-35.05511998522048,324.8109463594751,6.8564322101754875
12,23012,3.518912365530709,-5.762237096736103,31.16714481713619,-35.60535349017388,393.79255209470324,31.08180476822284
13,23013,5.441876767856044,-5.417440563217541,34.65886097809286,-39.64762578153441,466.0252127943648,56.739085381834016
14,23014,6.834665935452866,-3.333216750032483,40.67689697011125,-46.30330397943063,549.4314779559643,76.65275450291415
15,23015,1.5994852963677626,-0.11797923996042442,47.6024992715761,-29.405192208293894,616.9725940344939,76.6536520542496
16,23016,1.4909810688885792,-3.0382550476142467,55.338008493241006,-35.93948305069779,674.6634802891845,63.901502008127565
17,23017,1.0160103505025408,-5.260551077374303,55.98049502105877,-59.46283842211893,697.528766801534,64.2351000981237
18,23018,10.67649521360422,-9.207899381659079,60.09503632003215,-43.13457714204941,698.3164394011727,76.92519494688055
19,23019,19.513948473722234,-18.634574110085666,50.867905992469424,20.694592946889472,689.0897600672586,104.28459044356903
20,23020,30.1094546002821,-28.39598197864356,6.814595617992048,-24.946860322093638,676.1171203070327,157.27308507320237
21,23021,29.151091573424626,-20.72228125288447,-18.684884167904524,-142.50080661677598,583.5921959710329,407.8001877157742
22,23022,35.21249304989575,-8.136875051530838,0.7556060861647551,-174.06991581592695,60.7301095128193,359.9265946864278
23,23023,36.27643643882128,3.4082181016539543,28.668234472850187,-109.28801709814607,-265.46593625783254,320.34130754987217
24,23024,31.337262122839842,5.07694206109534,38.76739773606299,135.70171373363243,-373.48134905578814,199.67596294551907
25,23025,23.228057676567655,-3.760798101088463,18.950575696048496,348.54079198990894,-336.107068044063,108.92231917807406
26,23026,17.415631299111688,-12.669767533565507,-5.4994068354706815,182.277774304835,-387.6355766632198,75.21481210042924
27,23027,15.895181139652955,-15.599259477224956,-12.470716339062815,-73.91601297140674,-419.84692252974446,84.762304084603
28,23028,18.18252537565686,-11.92626984812144,-3.5468149119973353,-196.88891084724662,-439.06057690579837,66.79419636968454
29,23029,18.84009215595022,-5.895333920361615,8.595721993303457,-185.13452357944107,-445.87446450852025,25.777283249980727
30,23030,16.83747031078281,-2.666049609594471,14.541755199356215,-137.99293150616333,-445.0275459958762,-14.690502346761129
31,23031,13.31255498374712,-3.122977221934036,13.524582727942905,-127.71057657951278,-439.5396866942541,-36.11440470807299
32,23032,10.287371459769112,-4.73734151565358,11.015022105802307,-164.8807936102206,-431.62249263930386,-36.03309727190107
33,23033,7.9608464292453744,-5.135883964365276,11.762980707525049,-215.39246580687202,-426.24732491453176,-23.721080722074625
34,23034,6.734770009435664,-4.119038499819902,16.611687832657836,-229.72215144265743,-424.2847796008636,-9.42337670122924
35,23035,6.240267105356244,-3.1401727577950167,18.876331443708978,-201.10334847142312,-420.71305556905423,4.8332366516140866
36,23036,5.118038991172605,-1.1718036527893667,21.40321592407289,-169.38451130188105,-417.75567810641104,18.154161846104955
37,23037,4.129052537663339,-0.07877630227058406,20.857297718768802,-159.6325723549401,-415.1653184904111,32.13526392004181
38,23038,3.3368038335995123,0.22117493709492822,20.47293583260889,-169.97729158048574,-408.7599612882882,44.95448762770998
39,23039,3.347766699573294,0.7689143170694372,21.77665331076761,-186.3769799186212,-397.5525218253721,52.4259216262206
40,23040,3.607227565064842,1.6008925627112682,24.53977218813163,-200.2496560961948,-385.73859258017956,51.28415656938607
41,23041,3.5152441190914003,3.1949899089060336,27.60467651917053,-215.1685882739465,-378.7791988327192,39.4518812847922
42,23042,2.991419753022076,4.983923148602287,30.977843613097516,-222.9238757418299,-383.8780797337605,16.952656498396554
43,23043,1.8322529468554596,6.844217173211207,33.89125813908583,-220.51988289416465,-403.32429944006986,-12.10964440259099
44,23044,-0.8427191505723929,7.740680527317544,35.166398367332896,-220.5513021980658,-429.3131134850122,-42.97545395632499
45,23045,-5.885213971098687,7.859308926204879,37.11672587979584,-228.22472731971928,-452.83281733347684,-68.98519160810197
46,23046,-12.531871703226788,6.957742270934501,41.55132167315342,-217.85444251352013,-463.09965620670573,-87.49122501995353
47,23047,-22.10436389896252,5.23275395425469,45.97109946595074,-164.5486239328999,-450.48486436144157,-96.16265814156489
48,23048,-33.265236472170635,4.779917715707722,43.490525385343794,-98.16787782878555,-402.7043631339077,-94.17357174150247
49,23049,-37.88314723910616,4.804706666482594,38.73745957710143,-73.82936686920073,-325.48981878997654,-88.51733229706662
50,23050,-45.934834752887284,5.338057269460415,28.911977077837832,-71.05051973617884,-241.7934276732361,-86.01347120335052
51,23051,-53.92525783231472,6.665131157392022,21.773994295912004,-74.89214295842693,-166.41540373046428,-84.58854836073108
52,23052,-59.763815518945755,10.806884539649355,16.17421297038999,-108.3276545670134,-103.74136423475103,-92.78951208073816
53,23053,-60.16501056940985,17.537095800714752,18.415379538453987,-130.69593100390307,-25.6272735974809,-120.04958830870801
54,23054,-55.66496690833649,19.583904494684784,27.923192010212066,-51.39179500816103,70.36811549740045,-153.4880594886219
55,23055,-48.978494565160624,14.043812071702247,31.10694345000981,84.17019164612086,136.40511691971759,-171.35752637141525
56,23056,-42.609947812867034,4.248283352275444,24.74670173883606,131.67300250581053,164.69360134535154,-154.6139824476469
57,23057,-14.390991923172681,-7.411307851706155,-12.94340283750738,737.6891884020798,422.0183295492497,-213.9752344066254
58,23058,18.210081541947492,-9.390590178425951,4.707419729976162,560.585845650901,490.53184898783985,-12.460133858816535
59,23059,16.522115508474005,3.6669326776176994,1.7259623257649657,297.9877348339109,661.6942555054974,-76.94780106463591
60,23060,-8.06278795138244,12.913839686276313,2.5225609746468196,53.98245502048604,592.0631257353266,-117.99568160970452
61,23061,-17.683835148695664,6.952189463929517,12.534582443286169,-88.98450433345823,411.2015054452653,-64.88208531838306
62,23062,-13.895818365372643,1.016367477367433,19.281031162094973,-119.49963592217978,253.60539443727242,-2.235877569629755
63,23063,-9.604290675392589,-1.0966422360767925,17.97215706827731,-82.35456245091818,177.01590453753374,29.380546724800418
64,23064,-3.189375107235164,-4.063829598040331,15.583091008185033,-34.42784118384818,127.702660099866,9.926344672869883
65,23065,-1.7450395142754935,-3.0841397044390026,12.868957946696336,14.705269370020712,101.49160628585769,-10.91338276835817
66,23066,-2.784731844407689,-0.542963549548543,10.304840290395695,4.054693089322321,70.76173361775697,10.203864206898027
67,23067,-3.454549061124015,-1.8933287535585859,11.016028967594384,15.615688169025729,41.23835788668643,14.60819566714135
68,23068,-1.6766392664695613,-1.8612702491011544,11.006636384868065,30.034072569981433,16.437748414350796,-9.49024885197232
69,23069,-0.8920753886303342,-0.7819771847273448,9.874058660299715,34.99067158271915,9.993299433528334,-10.08347948331237
70,23070,-0.7763628288877844,0.04101192918293116,9.209850213909561,8.189260122132564,4.716147109865955,3.9698931557031836
71,23071,-0.33823125378278934,-0.5940641798281726,9.907748101627144,1.5601711587088933,-3.450568978385065,2.372100801896666
72,23072,-0.41635995869902304,-1.0441262205351787,10.182590163248765,11.01974481226028,-5.933509724739092,0.17844270881336632
73,23073,-0.21912512935392545,-0.8193435288620015,10.063625990795426,12.014117368814384,-5.767460693389228,6.4387399569848105
74,23074,0.2162297827284225,-1.082955534228845,10.256822787984962,13.759555208079906,-2.82934725070175,9.926343424257187
75,23075,0.6504387607770408,-1.2357118065552801,10.256246635307505,25.051953150062086,4.5275028905854615,6.86220476364269
76,23076,0.56976995061159,-0.6359140259921727,9.82653678693954,30.043243788429404,9.075309179190914,3.029583391543523
77,23077,0.4112489338913372,-0.3726702892189826,9.670453426274284,25.932473599015836,8.764536071353183,0.42155953081911646
78,23078,0.41050361680991837,-0.5623807368561334,9.633967907616183,24.860766521753924,8.2118025710001,-1.7552460577855549
79,23079,0.8088196826712138,-0.8589262774503165,10.174372892627906,27.2511195645396,19.825857645341255,-8.279181288393566
80,23080,0.4539013198077598,-0.5929187857407895,10.173334031767785,29.318454245549532,25.787431022086192,-12.128936026302412
81,23081,0.37427030132036065,0.08414235109305203,9.85834822635606,27.455554094419355,33.41491515696957,-16.932716827022467
82,23082,-0.42100759977474494,0.30311706476047734,9.089681970912585,19.78561978293856,36.35832594579807,-16.82971354969619
83,23083,-0.6558662245341604,0.2702950205927941,9.399377282591823,-4.141216200300698,32.44865902527187,-6.864116508405874
84,23084,0.03888933938966,0.34891508532840737,12.51500634488579,-1.187950260664055,41.04463710036167,-9.772649973398316
85,23085,0.003793364280085704,-1.6765955288261027,13.807965076492847,48.612793500517874,59.190497666370476,-6.683485558869819
86,23086,-1.0440261662254606,-4.91318770842512,12.114582669038551,14.82783561088297,63.86023036087823,28.25295401681356
87,23087,-0.8127651059192418,-2.2882475823011554,10.429027525587808,51.66970580202437,71.84392862605922,33.23022593029608
88,23088,-0.7793840378014619,-0.15294214065690867,8.865272893734527,50.361993797695405,68.79854509425732,31.56612796814341
89,23089,-0.8597480884258066,1.5020199889296726,8.116125887273137,35.498126059966836,61.7777043168942,29.210628460071035
90,23090,-0.5302488635579545,0.5091262619587068,10.282110904687183,23.99767187341481,58.8181560193974,25.477230715406183
91,23091,-0.5637417653221399,-0.044493561701000495,11.289686849021098,21.701271148718966,66.20752870102788,25.428495351967978
92,23092,-0.9124776155321591,-0.03060719618994765,12.215759731855897,23.67144703572296,76.65715060256863,31.035025020398507
93,23093,-0.2333245705402418,0.7345392297250598,12.974490172763495,18.8257364622691,88.90924089951231,30.628819710551074
94,23094,0.24745569919044852,1.2727811528655455,13.698138885365958,7.623418458903977,104.33295406960656,26.232361123768754
95,23095,0.29684359448316966,1.0274275239794421,15.125700086716565,2.818692308521784,121.83228765833003,23.21924693177739
96,23096,0.38470874462730564,0.5917046059138533,16.478064574410116,5.174065947126614,146.35915215839194,18.09598028415666
97,23097,0.34976944611515765,0.3743651508027239,17.173901995470366,-4.521928221096021,171.74641124132168,14.992185273047685
98,23098,0.4298895563846176,0.8281403609370824,17.168640260176062,-1.742256177511561,198.31027523066618,9.754528542735791
99,23099,1.7103796891109253,2.8505579769418126,18.681233094627977,-22.49707958324766,228.50828591729461,-1.2695146160257944
100,23100,2.159814533491937,1.9729088916882844,20.999449279453582,-35.53447567663877,267.9538067634775,-15.708249921857583
101,23101,2.301578816469164,-0.8089482033543062,25.11145583809768,-49.73850934186679,316.793075901552,-9.037718438006372
102,23102,2.353590389477833,-4.627503623601448,28.11796922113176,-50.45764370223523,382.01050361607065,12.089214236584407
103,23103,3.494198604028524,-5.734525163651627,33.16994124680559,-53.866311744989375,449.5610105983049,39.70266370747669
104,23104,4.948383394275003,-5.302967817028307,37.35645021627476,-38.369747574933896,529.0858625587487,64.53484155137782
105,23105,5.145174287665411,-3.5739821787213257,42.0362228926933,-34.18843968257029,600.8574118862037,76.11853420206917
106,23106,1.0653266453966515,-1.060133812353675,50.50419096209189,-11.112119924040325,664.8031534245246,48.36496568583653
107,23107,1.1553635491844483,-3.4518780310047448,58.19451743123228,-38.19110430660321,689.341453409928,64.84910292713849
108,23108,2.2756039493055904,-6.817526834111144,55.87518240514967,-9.80307083309189,693.6793785095249,62.540496066162966
109,23109,12.966393694267545,-10.64940072166743,60.368430167057646,43.478126027948086,684.7397902296192,94.68123657469009
110,23110,22.67127412909785,-23.056054645647265,46.54652899171159,30.206310671704255,678.1726279976003,132.7939677133663
111,23111,30.698938800431982,-27.76190285139307,0.7959113366427573,-110.6051415083976,586.5086135267047,365.22955086698573
112,23112,29.95524628880138,-13.693188199893623,-19.187870374149384,-128.89183072743083,125.86351647605456,345.44602822959376
113,23113,37.52605888908873,-3.1736110021677915,18.178182319449437,-172.44634660865262,-226.72404565872682,335.1024014130849
114,23114,35.63373113956455,6.852552997399122,36.80060533466223,70.96275240992911,-362.63455457964903,218.51956816013694
115,23115,29.07302150528763,1.9366652823334214,32.80361241161605,300.5543761618103,-327.74231850543043,117.28665876466768
116,23116,22.036132542363173,-7.9094499976977195,8.716554253550347,397.3833076253138,-315.0886723127988,61.06473948052045
117,23117,17.48550468089661,-15.435015637654017,-11.170935740214412,293.6489292545798,-359.8647346333547,52.934019398203304
118,23118,17.4365493550266,-15.942138366012484,-12.282301313922016,26.113390099859995,-408.98111899037985,68.74112099376461
119,23119,18.430862088873972,-13.975973642603227,-6.684678776977162,-170.3955119268606,-439.559012221128,63.93960881826809
120,23120,19.17291213403348,-8.839036242780036,6.506993110175888,-206.39047914340213,-460.2232971984208,31.585603239908842
121,23121,17.232808799609156,-5.115003469410655,15.413347890344154,-152.8524460496422,-475.6854592668127,-8.999805373458855
122,23122,13.170201162089963,-4.825787925321213,16.239823670543352,-106.89520814397407,-480.8686599162485,-35.51870159548584
123,23123,9.233117801013998,-6.254915168617344,13.232181470020898,-119.82048634266172,-476.97721384534043,-40.27782260709288
124,23124,6.535506607027567,-7.0955511986641895,12.022309419726529,-174.46632159596032,-469.4781121390707,-28.556995605763404
125,23125,5.45750938221679,-6.210762680465325,15.562043083093931,-222.66023709031418,-463.73736951836685,-13.560256449131941
126,23126,4.986230523889216,-3.7196917370200926,20.46817602128279,-226.16472975074242,-457.35287558561606,-3.8168385046601196
127,23127,4.581163890828921,-1.252747945998983,23.640893136320233,-197.87019440291584,-452.1057584998744,-0.5319535829777662
128,23128,3.5980754634940593,-0.4123721744540104,23.983575199521457,-164.88089551688307,-448.2395801630394,1.5359705286160608
129,23129,2.3340259384376973,-0.21961419182358038,23.949428801699003,-157.5030472413579,-441.9467636167656,7.619486029984912
130,23130,1.5965224440626025,0.5229272862377312,25.485983850841244,-170.38116975269693,-429.311760027138,15.441123267542265
131,23131,1.4625637274864807,2.1502149451938335,28.204079433676622,-185.83776148568515,-407.61796507921014,18.969509247142845
132,23132,1.1755052135269213,3.824869855371006,31.577263782666513,-189.0033517743828,-378.87347616772905,13.856777215915296
133,23133,0.6777125902899926,4.38329598649721,33.538272696570054,-181.85762108097902,-350.834192141381,0.13318565508372682
134,23134,-1.3114913800697956,5.040308283075508,36.81545073706263,-157.37955844456368,-333.0510492485391,-18.339580030541338
135,23135,-4.596711812202518,4.62522041208434,36.14327803219357,-128.79309798169328,-330.330932343395,-36.00763159013663
136,23136,-8.615746321013013,3.153209419596479,32.75132571069992,-134.1167072644496,-348.1543382568423,-47.02399458949527
137,23137,-13.132441346351957,1.7125728364984216,31.518612357346136,-166.35922477656473,-383.2360933929555,-50.44831194275729
138,23138,-18.18114694071136,1.141666009477847,32.86004971028867,-178.4751894420321,-412.81203061101047,-50.57666333282427
139,23139,-25.601004775092807,2.836952485761565,33.34190631924146,-161.97445958533118,-411.64826297141,-54.17781236200535
140,23140,-32.76689147796355,5.9581425452675285,30.263506711138366,-148.47676918303463,-368.9238962341943,-63.92722146443559
141,23141,-40.40462323924169,8.256438084215528,27.774090077330197,-134.64602166108344,-295.16984513990025,-87.79253234971421
142,23142,-49.52774082446305,9.347844986799684,22.493286318120763,-107.35738791343235,-211.7386827457868,-114.61137169596407
143,23143,-59.66791654562103,10.762782930690799,18.485312424760924,-107.20765023493524,-147.85158203541204,-135.7324217531559
144,23144,-61.696446933442466,12.889162142654218,21.284750021841614,-136.8863050594678,-85.04082572948748,-144.973460357031
145,23145,-56.63856126899239,12.986017062315499,26.727609891675485,-120.22999941437298,4.232619191696084,-151.38524983444208
146,23146,-48.53224651282081,9.357677271928125,28.920719781975333,-31.187901027492615,89.016063804783,-154.1218477285952
147,23147,-30.39011989511135,18.383768385519797,53.73039519484296,-100.67336659093937,285.01380777369735,-45.10824161368944
148,23148,-10.65796795839162,-9.584078520893549,33.39871006866514,-180.33145719863504,472.4826037010394,-70.74636224747553
149,23149,15.689183090783034,5.69429876171084,11.33816511346863,180.91035883156033,603.547187551862,-75.75941708169347
150,23150,0.9118983561294176,14.251346159070751,8.278880546955198,134.3562350605701,732.341384472515,-107.44736850097021
151,23151,-21.343640403435785,16.51838264982678,16.610892407960023,-48.90676988517832,553.8898478100872,-63.304488772541376
152,23152,-17.78423735122659,4.800303596780349,21.10924029299659,-151.57712414233347,336.7957235277066,3.421307291825535
153,23153,-9.60058865987444,-2.48331287867082,18.949936026350944,-153.92145386861802,209.85342588704174,49.69245192895094
154,23154,-2.3191463867349293,-5.834867499883972,16.32945919237866,-82.8137496881305,134.357064107541,41.0196999590042
155,23155,-2.6954528555221375,-3.537212172800739,12.724567617037518,5.504409939911187,111.3196505923056,-1.7289217674495108
156,23156,-4.525334888133404,-2.989758490924834,10.840614574381105,33.427123483171115,73.2605719016677,-5.186158944948336
157,23157,-2.5056626033374827,-2.648355988435784,11.365942795002988,44.0697336979053,44.09661803347129,-6.652032389695062
158,23158,-1.3285123298056085,-1.3113297994541158,9.804905306111399,74.64518060136685,26.16081936584843,-19.39464374353402
159,23159,-1.6892242677785143,0.4127767105914759,8.517185303048105,68.7825357229602,20.152411105249985,-14.93149013264325
160,23160,-0.8951605024848148,-0.07211090143316234,9.211664947256471,30.007256146400774,7.55445275346007,-0.9435711700015005
161,23161,-0.5756422687358955,-0.7446378431156337,9.910567185708357,17.054711423410353,-1.6413836468985645,-3.935247690998533
162,23162,-0.5363115544473835,-0.9334157739691109,9.950904897620157,24.216845276700628,-2.623847358551635,-2.743131091455233
163,23163,-0.7331254937780964,-0.4041307500717092,9.869207867999346,16.682079302766088,-6.356259861001523,3.418516203626327
164,23164,-0.5341597812060037,-0.5150979741717738,10.100493694009288,9.160772795407953,-11.354412012915166,7.917697132445055
165,23165,0.019523985753387676,-0.7417895996425858,10.254174665274903,12.263856066731714,-10.356932290534711,10.802399277043769
166,23166,0.2539819935604924,-0.4084013747973433,9.787191922386773,14.48625116359889,-6.307910078599543,12.722677167890172
167,23167,0.3718420297175488,-0.4476834456213739,9.709975003885841,9.765951503518476,-4.287933420060163,12.2900134676956
168,23168,0.7668364239509337,-0.7127584205472274,9.78783709531586,8.646664810385703,-2.037231077354942,12.248552257932694
169,23169,1.1253529568037304,-0.8967284810079952,10.250203275838771,11.694724925832302,0.41065258898859336,8.453425993333678
170,23170,0.60959344797289,-1.0874221385508465,10.023756738753924,16.39793940289969,13.22079912651289,-3.825827399375563
171,23171,0.9680540640024838,-0.48054939001934466,10.208033575517154,17.749843595054887,18.73190692570422,-9.126004403144096
172,23172,0.8158998921766205,-0.3937547814999028,10.978251575934214,17.835250670724687,31.87901367692715,-20.36180544565389
173,23173,-0.7301565103968943,-0.8129003999129962,10.412825625023315,31.537105165632145,44.18186920699043,-29.674109803856098
174,23174,-0.2586798035950408,-0.8961673586704016,15.45725272218563,24.78482021533033,45.17293118155018,-13.54890679476268
175,23175,0.8842801797968317,-0.9803367058361083,15.105667953621012,48.42402693026994,53.07923325520731,4.4869360936356255
176,23176,-1.9305271383898874,-5.055698318988409,9.809503567385807,59.076044219987494,59.8164016723876,3.8088979839758954
177,23177,-0.49676885227438855,-2.7790208679765174,10.586743154853549,70.72069776568483,63.63325256214326,40.4095702160742
178,23178,-0.5432633485350382,-0.5320724629825292,8.868126487941558,70.91254255278716,65.94954039550116,42.425560161718785
179,23179,-0.7024129463272857,1.914519705905655,7.879801052528768,59.82006072024113,60.01360381524059,37.651054457764246
180,23180,-0.6518791170008347,1.558310343979143,9.501135203746363,39.748868309259876,52.272248961786936,27.648116104111423
181,23181,-0.2861342916989514,1.0865049694488826,11.045064220028966,32.45990494044,53.798128229074294,24.442902705379645
182,23182,-0.4410571384298614,1.431786137470832,11.350308179026506,25.810072647311966,61.08720486411844,21.908135341498294
183,23183,0.1212896383182518,2.0875229021970987,12.380433679608327,14.088436934101805,68.64419456593183,20.96955111958991
184,23184,0.08734389406928032,1.2317455395338237,13.429762629582282,0.3363708628334828,82.47341242340232,15.393693778073093
185,23185,0.014896930616092782,0.9052700984752927,14.43510714588771,-5.835951438735985,99.18176322226925,14.10520914131138
186,23186,0.2620806400943758,0.9987376109547916,15.781000076055683,-6.983138748276285,115.93061113467418,11.796445190737822
187,23187,0.15597241887124919,-0.1829847399916784,17.874185017524685,-8.996756916272703,136.72071961050568,10.188072700273427
188,23188,-0.0010782367482395823,-0.5949540041923244,18.149021327458673,-3.022824130711087,165.98145782496852,9.827398608593228
189,23189,0.5184318218424965,0.2053592591110232,18.677076605159595,-3.4131330883934172,194.93227383902956,11.780278551744555
190,23190,1.7574474551565125,1.8852594620301408,20.03946998041911,-8.541548884955892,225.28407646137663,3.534815054319809
191,23191,2.2127963019471273,0.5290037095192968,23.325740531967075,-19.030507757411034,264.70922408133,-5.75191073408991
192,23192,1.8327906107365604,-3.2833653593128362,26.681054109610365,-18.889181337571657,316.30003338250526,-1.5210898635488277
193,23193,2.4374481590265695,-7.405875761301524,29.72652442095381,-15.571868103549964,379.6162272791194,22.90510430856866
194,23194,3.3665689591008716,-9.705858983898072,33.29010844377466,-11.01350081539163,449.85300797908377,58.79203474934793
195,23195,5.939862024327882,-6.767989723966687,38.36855803691727,-16.673827553839455,529.2816445066279,95.17246544369894
196,23196,5.1977474510506925,-4.604343636071001,44.165499664889374,-1.434240467658572,606.1433719298681,107.24671580138063
197,23197,0.15724097033960238,-4.598070505934747,57.171856335535075,7.976701334956954,658.1669540258871,91.93699098517952
198,23198,1.486127611437537,-8.169628682921536,56.432924341017895,18.148299239324658,686.0360008792433,90.27266143774688
199,23199,7.172279197770217,-10.00287257279673,62.00878787609275,28.790466906821024,679.7166078483948,99.91564181547172
200,23200,16.7395161080303,-18.457002737156728,60.35570352408083,109.42235796174391,665.4292524318445,134.688699657815
201,23201,26.357786384942546,-33.694698703376424,19.60150799148487,115.02686300382106,656.1505892558066,180.3567091719353
202,23202,20.941096554756385,-16.989020533303222,-24.26822520049717,31.752605664422447,608.091896942724,399.1935487806188
203,23203,29.512652030614323,-13.144831774493968,-9.715908224351693,-90.57423184835623,115.43942936665323,342.3337635908567
204,23204,38.127837139899576,-0.10763820025935147,18.37343487763657,-122.80541194618634,-198.87293854398968,319.86716365184566
205,23205,37.00817585055545,6.229952540388301,35.8758227976856,57.20147393724537,-316.2155776428712,190.10999225002206
206,23206,28.966311127347193,0.04127165605008117,24.31182010591636,283.63548719972744,-290.28139207553505,60.25364143362521
207,23207,21.899972287015075,-9.861290933246687,1.6121851570988002,345.32414635771227,-296.6377078599985,-17.569421229357477
208,23208,17.795663122017135,-15.183391168816193,-12.061133767194386,213.44081566446164,-352.4296058626179,-44.517951999720765
209,23209,17.329448497952797,-14.566084779627683,-5.825351107243402,-39.18184379025255,-409.18753937216866,-44.51284499105676
210,23210,16.953023751566786,-10.164063227490864,5.954686987374941,-181.24157376877363,-440.5966986690455,-51.65942309110759
211,23211,15.006477382362794,-6.527372413123604,14.014599695984245,-193.02350875503228,-459.5010445693308,-69.21254314598345
212,23212,11.866307866610226,-5.236155726380247,16.36640595418955,-151.14224043640994,-471.0029099214214,-85.3455708468882
213,23213,8.538451024796283,-5.656950189133114,15.270806742044035,-118.34465173507749,-472.9351037470032,-87.8483308843222
214,23214,5.768805769253447,-5.957016400526157,14.825890956872422,-121.10462111738651,-467.68925868576775,-74.26535035319418
215,23215,4.04098125826753,-5.366852821382024,16.060967964956287,-146.85919180721868,-458.92498018818964,-50.30822113694738
216,23216,3.349395904613566,-4.08518759651858,18.284857169414053,-164.62824827557264,-449.06770814231714,-25.4600113194743
217,23217,3.0423870878244688,-3.276343188579567,19.24073279019677,-162.5531732986145,-438.28861779548953,-5.5805448428738025
218,23218,2.699597798030601,-1.518818153687801,20.379235724079326,-151.4125353081186,-425.7108753373733,8.445971792851894
219,23219,2.43018881230302,-0.5630017608290235,21.025199058310562,-139.38598054089724,-415.16814003448826,15.390763937567547
220,23220,2.3565559742281006,-0.21373374813838225,21.638135379206368,-131.56575200616768,-402.79719611810435,16.78586970098047
221,23221,2.0873712613294764,0.252866921956357,22.48192357636763,-135.24868315284473,-385.21167296975375,14.096579583185576
222,23222,1.9384226306582455,0.6092875982603647,23.59590851434712,-147.2970629771778,-366.92452203199883,7.4890586635158165
223,23223,1.8673501708946172,0.963329685929031,24.55544811194947,-166.6501540752829,-357.1042623361808,-3.3556691986597538
224,23224,1.9275768135702411,1.6797896146120848,27.12822378633099,-194.46794108505694,-367.4543481009177,-18.408043265314234
225,23225,0.9701161337010905,2.2289735035120484,31.056119763923284,-206.35944831667373,-395.68431383379647,-38.97727929330959
226,23226,-2.484074812114451,1.566476220436587,34.35486913308183,-199.6670579145273,-422.1115269509591,-59.97632030858429
227,23227,-8.040281819295156,0.7072813222161554,36.62641977854692,-192.67070223041398,-437.534948216554,-73.89769250645978
228,23228,-14.780402265027563,0.26866452847700684,38.93801638911231,-194.95771832038923,-439.4334289816471,-75.68544628489695
229,23229,-23.18629415130842,0.20000828051668532,40.25265096367665,-169.8312606564916,-412.92717135870305,-56.25552600253587
230,23230,-31.527379662945812,2.5527730411770966,38.80623392524983,-138.59479838146245,-374.40144912545,-46.40093944521152
231,23231,-35.41016206316408,3.8252564666364828,36.88645620266939,-103.66645187482088,-312.0777689707132,-47.12392653913391
232,23232,-43.901559342630286,5.102197785484471,31.48489654441025,-60.61758652166919,-242.21553493945385,-50.214162425143144
233,23233,-53.639136037382634,6.75740937555385,23.04266455589141,-59.57480194189725,-170.03423946561776,-51.8172935773374
234,23234,-61.22638221091629,10.132178300851773,16.304430472417643,-109.81912239610719,-94.76261027019613,-56.78754944832666
235,23235,-62.502033944014265,15.38642743821696,18.33472448609511,-131.51853436396465,-2.6829672758228393,-75.9661924784331
236,23236,-56.97429800492438,16.941212754256334,28.073680580930155,-45.52798830428902,93.00908201829327,-104.561651974819
237,23237,-48.54570432821644,12.494837006825735,31.39093970199288,80.60493371254223,153.60367183448528,-127.89513862674568
238,23238,-39.756399944824445,5.159834202996332,25.646872725763558,115.71632415716542,179.46301748160073,-133.35978200562184
239,23239,-6.038749153792017,15.45250988550376,-13.230484737780914,549.4928215356407,427.2435214105512,-69.60110658146485
240,23240,16.679873415269203,-4.582532958124257,4.509703605881201,371.06440144686746,534.5894559430337,-141.9555977771268
241,23241,13.463144440793098,7.598455723262428,3.471333625066127,189.60440346534367,734.5894988692959,-104.19708755108005
242,23242,-14.866234293055156,16.533260394990048,10.954047687817024,-9.637316941492305,623.0976044901224,-98.53064649348524
243,23243,-21.301835305447298,8.16109871122209,19.781563173319338,-149.54426752469698,385.4993860705553,-28.989284883962277
244,23244,-13.219406339642246,0.30750130168629264,20.171098489517245,-140.3489784839585,232.89263565126745,35.287740539802904
245,23245,-9.285910387559799,-1.7712909888606083,18.51701340597073,-93.27267549587505,157.2371080444963,46.1047724346639
246,23246,-2.9107464237052714,-5.303768135541249,16.2882708360408,-5.635820916645465,120.02452500096109,5.565986476906859
247,23247,-4.305601662591951,-3.0620026624253622,13.883238089233059,30.957555267606903,78.47432156289464,-11.027108983560899
248,23248,-3.733803239971321,-2.5377638258211115,10.870269357708409,40.02975864741571,50.00611836365133,-6.336081041041963
249,23249,-2.588591329099992,-2.278756918358871,10.707595243335142,57.97801543556065,28.724433368492967,-12.417681156810605
250,23250,-1.4053267446823592,-1.5706204869732983,10.193255836770355,68.25817343579186,21.031174694746532,-15.36117610556096
251,23251,-1.332014036847601,-0.07494224719886791,8.90577006364221,42.55993975416889,13.03463116680467,-3.3317900862249408
252,23252,-0.8943912210505947,-0.22133308622126976,9.36733161324015,24.00862634988766,3.1556561327222568,-1.1214380650154723
253,23253,-0.41685274177181114,-0.7813960388299821,10.025707923346177,25.61901309056877,-0.25640397386678454,-2.138950773286465
254,23254,-0.45816687329594896,-0.7093088215456106,9.755516934215589,24.51089323261196,-1.6171328119933517,2.0544358977975277
255,23255,-0.5748969516544765,-0.5549273954784827,9.947052704366458,20.85667919296622,-4.750200704846482,6.89654852697028
256,23256,-0.17886476574304003,-0.7427390141336018,10.13963883875272,24.036985025542087,-3.9378795704247875,9.112582656676551
257,23257,0.3733726044683886,-0.6331502710558361,9.981581286744673,31.377776026970547,1.441817794493607,9.268977662749782
258,23258,0.1727761629073784,-0.26157467635191944,9.439367320073677,30.491662279725162,3.4747142261121997,7.096550329743562
259,23259,0.2119907467226118,-0.14925597375250124,9.360929075966201,25.016169283144343,2.429408672649489,4.781853810107305
260,23260,0.25312853412339537,-0.40999273312335166,9.671657496817923,21.091875565450177,4.341853573552626,3.9776565633837353
261,23261,0.3322428051852054,-0.48539105582673836,9.710579915001478,18.99863187177213,10.796625871651457,-0.8129718776944735
262,23262,0.21438276902814893,-0.4461089850027078,9.78779683350241,16.033900725833035,15.361386224132659,-4.7254883024794
263,23263,0.33602530741550257,-0.3276816266332533,10.171096852051665,10.97580058755073,23.508803395803902,-8.652706842316533
264,23264,0.055485099708386616,-0.22123169997721662,9.593607188953841,5.608803658399495,28.106401841180418,-15.070283417487897
265,23265,0.17742810080997337,-0.32822897711593163,10.094872780909766,-0.21863942216299223,34.629319709433595,-13.191322779401222
266,23266,-0.045802827606391226,-1.1679812654594672,12.26203311042927,6.01450987938783,42.13049344744628,-6.256412259717164
267,23267,0.367851543769849,-1.0969497237602421,14.762876608354711,81.21860663242514,63.4901911057454,-10.095599489559271
268,23268,-3.007936035593024,-5.034553028769858,8.351054753726084,49.87009216894911,59.82349987240445,17.012914540133032
269,23269,-0.7742036730649501,-2.327803328366525,10.31369857151593,58.74459831119008,63.54680346588123,43.654935730425876
270,23270,-1.0200085820268006,-0.46016432758718256,8.48459799114479,58.119215836916716,61.78775185208045,36.67570057709468
271,23271,-0.6976368898338118,1.4337912275469948,8.693809518492658,44.992399151525866,55.146824071396956,35.8228651325114
272,23272,-0.3726611874508028,1.374066608277036,9.925389348698326,33.38140830986464,53.08557760065309,26.05461741380312
273,23273,-0.5656889332604912,0.6674945326945265,10.781339036736322,28.58419646489816,59.00733302686842,25.646758283206648
274,23274,-0.4010572969452072,1.1689275669986372,11.50699069911976,18.73110901558023,66.42149720870721,25.362209638054196
275,23275,0.20060421785621718,1.8618414891549322,12.497999813396326,7.052518490648042,78.63794470393297,20.726349346969307
276,23276,0.12875019171389546,1.1974943212218152,13.699548427406567,-1.672842121771445,95.56069667686165,17.023790589956338
277,23277,-0.18095540692184509,1.2480273913875601,14.547993448746498,-6.864119263833193,111.76110669853762,14.026441344849095
278,23278,0.2610428484163242,0.9214742546840573,15.66627603309944,-9.112094513354743,132.93643800355827,9.768174108906138
279,23279,0.0008492636641836627,0.3125795183690508,18.100785260917778,-8.23482051297726,159.4074587607139,6.953588973426979
280,23280,0.07391312878103815,-0.037749399872262814,17.410825989642742,-2.051142251979399,187.31642667445078,5.507857324660862
281,23281,1.2788349349024026,1.5393802504034864,19.544864162422826,-13.832813875532874,216.4609674623463,-0.41296104640372727
282,23282,1.8870513181298982,0.7379505135773625,21.938494035777723,-19.48226846955334,257.5952993902582,-7.081041298530642
283,23283,2.144299591193845,-2.012290729322558,25.625870016601738,-21.332661986143236,308.4731532722975,-1.4250548168485642
284,23284,2.5185261797980774,-5.745061753478903,29.438716237530482,-18.12108195487013,373.0062132775803,20.09870289744775
285,23285,3.3190563386880987,-9.15569555213172,32.0133516127321,-7.41842219202507,445.0253545835715,54.177706526938145
286,23286,4.613093074516134,-9.593852626804754,36.20997886148358,-17.603274189056453,523.1170320001918,95.69566074720183
287,23287,6.408192485212679,-8.550474604748409,38.192648014653436,2.9412903945436004,600.45134773684,114.2620257246963
288,23288,4.6716739303801385,-6.471491209455217,43.10962909111031,-1.6691920624267507,660.6302682363155,115.68501432399106
289,23289,-2.1593316431212304,-5.503818608615408,54.07332999416245,-28.20991448576399,685.7060054026737,98.55192085431374
290,23290,1.1987996688216471,-8.64079734358233,55.12979451891191,-29.6462789324456,693.7011955188076,125.552010135408
291,23291,8.032351188564313,-8.968037718233314,60.41407820093663,50.16827832729878,679.5096355253677,148.8552172935738
292,23292,16.12182411457749,-17.18514243978333,61.88598673550683,71.46765107047749,685.8308694812946,193.10688467316533
293,23293,23.596412428766218,-31.005409858257455,24.632733147652417,-33.33189009668179,627.3121737916836,337.32220850146564
294,23294,24.744597538979384,-13.139421695877372,-24.13617043948806,-69.1060938493622,294.25436735485744,345.26240868180355
295,23295,40.26673751801389,-3.4894478005311127,4.146841098075874,-164.75944846312626,-145.78508195225945,267.6941837721884
296,23296,38.775110786951444,7.97563322111229,28.41406660085139,32.62094874182408,-350.9696381307906,121.07254415294781
297,23297,31.007526340198563,5.391440070440453,36.80126353811048,243.08552404830732,-337.9666322960114,-7.207471027683822
298,23298,21.58786513636682,-4.923502202883253,16.583208485664045,350.2547827018963,-308.38045222504485,-73.33310033079354
299,23299,14.408069960598482,-14.025288666930706,-5.700710094072102,275.3822604832182,-336.1885071663281,-78.44679287983459
300,23300,11.250497316970696,-16.682057877616497,-9.739190399099177,37.58143800175379,-379.68862643168626,-41.8067397858163
301,23301,11.361193884031968,-15.417986957725935,-5.862896966368271,-140.92799202067843,-410.4858689748077,-7.1354908513716815
302,23302,12.56002718044537,-9.712224122721098,4.778137859657229,-182.6355223233476,-437.30130382940666,1.8076814822051603
303,23303,12.83789701301979,-4.403086446812371,13.887359146775767,-137.4284947059816,-456.18385633717753,-9.263244733678857
304,23304,11.484076028881443,-1.708167142650464,16.908392488640935,-75.70033495890499,-464.77863393872525,-25.23916447929085
305,23305,8.860979393586698,-1.954823474955556,14.8828969588451,-54.21894454955778,-462.0135023896573,-31.457851398407858
306,23306,5.99730614277222,-3.1865672590414382,12.715088821110683,-77.00682018715942,-451.34631487092173,-25.81049911538765
307,23307,4.1798210879382225,-3.595266006129493,12.84426746227822,-114.44761544528383,-437.3061034052525,-13.547016629120906
308,23308,3.4852704421937837,-3.2983976600981575,15.001668690320633,-132.40120999230894,-422.61412112601613,-2.2891038551806004
309,23309,2.870763716833529,-2.8115451911883325,17.2336674725921,-129.45186064279815,-408.229006134037,6.589518227677971
310,23310,2.5256862502629276,-2.2258752188891457,18.461754287349287,-119.29582563313407,-397.973217931288,13.036550655708615
311,23311,2.013801409782862,-2.2210234482661493,18.695419496008324,-111.83729532530636,-390.76620502901216,16.431874170886687
312,23312,1.4985346840248097,-2.6744472875141967,18.625855198826066,-116.37323792645974,-382.94930679400017,20.204678949996914
313,23313,1.381191395293342,-3.2368280308206208,18.979135504555163,-135.33312985439937,-379.91823278789013,25.249872627252724
314,23314,1.8669320537584608,-3.1036425880940692,20.51598230050892,-165.2083384796049,-385.7849888392338,29.930421922305776
315,23315,1.838119351076545,-2.7822603604114033,21.860842121504408,-198.38074368281607,-395.4008006838317,28.31410031137818
316,23316,1.5922305769881706,-1.8202523861720923,25.703663087780125,-220.4262975394847,-408.5299377384969,18.745228812503598
317,23317,1.0260462995990565,0.07648225867955054,28.652188100511754,-228.2057984569084,-420.6822990104394,0.7571503349275208
318,23318,-1.0063268041027433,1.5554058659101109,31.15042214828266,-239.9572738722574,-426.2588274427465,-20.087778626853318
319,23319,-5.209127896383968,3.1213064754730024,33.96692220447125,-256.7150539085939,-427.53671698266646,-38.46187448879955
320,23320,-10.741429445672212,4.867847579444091,38.59863130286396,-262.0358364671926,-426.230162775331,-54.498761357755
321,23321,-18.25285842966646,6.350121148429865,42.81953650378169,-227.9776409061286,-421.0689487157719,-66.24271723659145
322,23322,-26.743473829877626,7.890634239453721,42.807757135346684,-171.195170513694,-403.7789481520244,-77.1816663969767
323,23323,-35.97289994479826,7.950601881430187,39.54149460200181,-112.62244949898752,-356.08457866153117,-87.8755745934473
324,23324,-46.90036120840741,5.947530025820356,31.72222989231864,-52.80920457752858,-283.5671350277622,-91.56972498811697
325,23325,-57.13410071582028,5.981221346632964,20.834678164241076,-34.40707633203948,-206.7969426870284,-80.7106325067652
326,23326,-63.766545823621655,10.796511883001413,14.499879762789565,-87.55189898837199,-136.43722126036948,-66.91717208450294
327,23327,-63.826437003215354,18.58970422821151,19.809426422278033,-152.79929999573002,-64.10539394382384,-66.63934642808466
328,23328,-57.56798008941978,22.024256493183508,31.566041371585893,-120.69700186581369,29.30198426811949,-90.85634840689119
329,23329,-53.129875205135605,20.151495527507706,33.99015525520153,36.34780863053976,118.87908270482491,-124.09010308425765
330,23330,1.6938497109911201,-2.0120204914420783,55.711184480820314,-258.56296537629527,416.1199106717265,82.00418315159355
331,23331,-21.956454195327048,-27.05865936042367,34.143882966608665,-352.8131655012545,410.49885016615997,17.436329156879992
332,23332,11.8303101904816,-5.830574950584333,11.67367865934457,336.55191146371664,663.5237089771307,-14.941980473168382
333,23333,-4.3490519620724735,14.559128758107722,1.946798242437476,147.4691819825285,753.4580125135351,-106.60909137363308
334,23334,-24.55410325493443,12.669199107077299,11.160248171221868,-36.25717136608004,537.271741102079,-66.27676414105129
335,23335,-19.16882771805145,4.048077224178036,21.12433431244933,-139.65694675615842,313.31561938120944,-14.852528482568578
336,23336,-9.486382710529929,-1.8137895717513397,18.133302444427535,-135.28262070160804,202.44203678064198,42.04307394103876
337,23337,-2.6754552295231435,-6.0234224486181365,16.29477115200456,-69.01593139740268,131.4425000360838,30.08436422524367
338,23338,-4.47026954820451,-4.392114504694106,13.436080961915605,23.092106320628453,104.55365440900125,-20.485904988100817
339,23339,-4.1316744514654316,-1.826083202081608,10.248384317948119,54.41488851962451,71.72311232976541,-25.72811459378801
340,23340,-2.1930758906141445,-1.8649057228835355,10.624117990493236,44.80011299841788,37.21776770199736,-9.364008147705304
341,23341,-1.1699390875528808,-0.9718498165461786,9.761948229927718,60.97512849350346,21.21418692935854,-15.935828370492416
342,23342,-1.293961363301298,0.3741872767244643,8.554104771450687,48.333037677750106,14.910101694902826,-11.347250836736919
343,23343,-1.05511992783543,0.414435659746853,8.783570112426082,16.745025929302123,3.7664309527379154,-2.522216330662159
344,23344,-0.49606716707169884,-0.6308561709572057,9.947463647360399,12.29220184178016,-2.047227763732545,-3.492302666838226
345,23345,-0.4961673213097766,-0.5557146257878157,9.908141789558174,13.857703745043873,-3.3859497268060452,-0.26715967698378656
346,23346,-0.49712093498495125,-0.4821644389444342,9.753285506187103,7.962643797806462,-6.87487698058334,4.172540201667413
347,23347,-0.37755397995370077,-0.5182637931164482,9.90713743882387,2.9731554587267777,-9.668665658628761,8.597438731257931
348,23348,-0.2582715114014827,-0.5548936000637984,10.022477896271024,2.2279953083055974,-10.44054096312766,12.020934568305233
349,23349,0.09672304134724789,-0.5571100045174568,9.943657467607785,1.282796642564086,-9.220112509276754,15.092617846675026
350,23350,0.49143294910160046,-0.8227154322186463,9.983008083848187,2.7325920034880586,-5.197993207093922,14.006492290471325
351,23351,0.5700784014434234,-0.9743162056420952,9.984229409454732,8.423074972339556,-0.908340788410612,11.235382966802307
352,23352,0.769873609099812,-0.7447594389908931,10.211868513707945,13.767810229176456,2.4421096208240782,5.675670980905864
353,23353,0.4528475518945074,-0.4442270537280182,9.97915589059449,15.772021231926622,9.102103381389218,-0.18922195243124948
354,23354,0.4114332661322919,-0.29699829127425664,9.669643043661678,12.09743168762663,12.73223018872872,-3.4471937034224824
355,23355,0.21343714347057463,-0.485536342301079,9.672667599239864,5.012223414642174,19.167348256478753,-10.201294752670265
356,23356,0.0959697361482286,-0.633842908012855,9.867444899841159,1.4761058574970625,25.07802054999251,-12.538342440246778
357,23357,0.06160739871174555,-0.963099001715065,10.68003232038917,5.927807023565432,30.76331966524248,-13.089103950920254
358,23358,-0.8335882228354515,-2.290945309334337,12.971389799218143,28.676430993359745,41.77848094107632,-5.789812100639043
359,23359,-0.49053042279775116,-3.821984803167261,11.791944242308155,92.19208616409524,60.56623038779507,1.7041350507038897
360,23360,-1.605904124253587,-5.492722022431325,11.12215826103374,51.064714659518394,58.43627130149749,43.40776825417752
361,23361,-0.7439322886905977,-1.8178544842078779,8.882901591402536,82.6286872747576,65.17166764202945,48.32311787939845
362,23362,-0.6212194006186451,0.6000815670703402,8.625301337233429,67.86776075374223,58.302657798572284,44.83891916780279
363,23363,-0.5414317055338196,1.7311915892798795,8.343165832098348,56.34274425998238,52.10151520668106,37.178924078663066
364,23364,-0.4515751500364572,1.2991818406416435,9.965110646119214,42.56284422354885,48.96797135977688,32.554689151942014
365,23365,-0.6023591149996343,0.7859049933566389,11.126926459333296,33.67356470618916,54.766664795494634,30.358783132775226
366,23366,-0.3205765103114383,1.8870243171642005,11.460381149491715,27.30931762722878,61.00042179078367,31.88006287947522
367,23367,0.11572033603775676,3.0564061977691246,11.291577400335179,14.446856765907539,69.13129952806875,26.197608704596362
368,23368,0.28410621340366365,2.773892309160335,12.795967583943314,-7.229467341313377,78.11055083409923,17.299776383157585
369,23369,0.1746603443174256,1.8495956121657007,14.347155533613563,-19.049926641392137,92.61565205974,8.868906517690482
370,23370,0.2665722101088173,0.517478679820795,16.55649706682996,-25.373695434022686,111.21205371729957,3.545744810297088
371,23371,0.39138404035352853,0.07685329801018269,17.562058558007624,-23.250936671631905,137.72141032733242,4.159326877596816
372,23372,0.2727184734649774,-0.5633212543423117,17.762103345590866,-15.80556609172123,167.23063787126642,4.4830584182274835
373,23373,0.8328415839133074,0.6908956078623929,18.28509660780682,-13.885443415522325,195.82379659616,4.561340949626831
374,23374,1.3614631979506788,1.3952058158347433,20.085246140684006,-28.727563520156124,229.14278680267338,-2.10154136096347
375,23375,1.5776578616167185,-0.9434851245802113,23.421761460241473,-34.53390633132251,272.4367432936663,-5.53132391060834
376,23376,1.9921128613614345,-4.147741457441145,27.1517123326934,-32.90882312672956,326.67282459827123,7.823896097131373
377,23377,2.0046536252555125,-7.137489680956655,29.87993090047083,-22.446051195547213,394.08568682200536,35.76890821005888
378,23378,3.7878731184767296,-6.49443952749272,35.75732106327693,-34.913048987835914,463.12068686758255,67.65178484794805
379,23379,5.362831011438264,-5.720091092542448,40.13214152750945,-25.021773935956553,540.0936129359908,90.76303595911828
380,23380,2.720980085754666,-4.53742034884429,51.18777540850326,-13.456352533005816,600.5734809626011,89.87450457630821
381,23381,-1.382336753693118,-6.775350870586128,58.088910433225855,31.78144095086863,659.0754469558455,68.42394896450104
382,23382,0.376812304044257,-9.678412850789424,56.531747098310596,28.92555031199752,683.4863418730223,87.45880228627983
383,23383,10.08858951691078,-10.705310599194547,66.62368917889144,43.41664867014534,675.2975920923782,101.83319571022412
384,23384,19.247684522839418,-21.327850821612653,58.56327147034425,157.48285107812066,678.6642119263324,132.63453433024532
385,23385,20.985088507220183,-32.928071682936746,35.52883562000567,145.89185903520035,671.6003326794164,185.37893122176374
386,23386,34.64200280130346,-22.660526226827056,-23.50692496590446,76.50012400488336,564.1528962059764,310.73752541949955
387,23387,35.36424047111743,-13.042368523462613,-9.169010202207742,-146.60549114413624,40.115170764290845,329.49026264526054
388,23388,39.1785009296593,0.46010299388798587,21.366464549095745,-111.32603365382793,-243.38385157309494,241.2477171240543
389,23389,35.34435526923608,4.494358463098205,35.86433835457795,102.37489029318087,-323.15240393542035,107.11560119636502
390,23390,26.64716954192132,-3.430428490671892,21.741495950837383,305.31519069101955,-289.4381672525312,4.94935018083935
391,23391,19.928043965165987,-13.274388164187004,-2.1160911145652883,339.57810373101717,-299.19971650906183,-38.61923454905603
392,23392,15.689948130888405,-18.061140183245577,-12.674449156244135,179.27301168460562,-351.82799035455776,-27.77405318153823
393,23393,15.661276441445066,-16.460449191661937,-6.374375437780473,-60.25934298063584,-388.46329458758817,4.890128237039743
394,23394,15.87642407638587,-10.857027842769188,4.850540085241527,-186.313778332936,-406.75487739800434,22.496907489830434
395,23395,15.031912496593597,-6.026441266145671,11.929107637647371,-188.57991785850106,-420.8580766320375,19.72811806446451
396,23396,13.076414021418623,-3.7984807958565545,13.879677767018915,-143.94070125381458,-436.53403981012997,6.22727080432746
397,23397,10.386949089795323,-3.1550256215758647,13.270186858812588,-115.79304573031644,-447.90719786900667,-4.9112527205167495
398,23398,8.292890661725462,-3.2238930148696716,13.28158239131988,-121.613287380975,-450.9036270508289,-9.365753914390215
399,23399,7.309389332493816,-3.250562503037031,13.864652705703776,-142.73663342715054,-445.50531956295555,-8.645840339363497
400,23400,5.8651581905990975,-3.0248049572761055,16.180704893494603,-159.15426358021384,-435.66728224232963,-5.879745558598296
401,23401,5.09393752163086,-2.3466675801104637,18.52701102404074,-160.69388181542166,-424.99216498015556,-2.5569140372502144
402,23402,4.314558910891163,-1.6460773344572053,19.756079182781686,-155.29828486081215,-417.53070766106777,-1.8544787138362957
403,23403,3.7698785570227287,-1.327269675006248,20.79544355978158,-153.2400937008022,-412.7561643176575,-2.3748527754258544
404,23404,3.2704871572672842,-0.9601453498432041,22.604432529458176,-158.0631840469022,-406.5580246693643,-2.693757336190213
405,23405,2.8936919095743683,-0.5481438531540871,24.951577801055087,-166.58784409588125,-395.31333453584625,-5.370498497541533
406,23406,2.20832900916184,-0.0834874751978807,28.301213994750402,-176.74494090291446,-379.960975159713,-10.08021903590288
407,23407,1.0960296605646564,0.9617911248381479,32.49422169092541,-185.7932877842799,-360.7580142536211,-18.88503645304509
408,23408,-0.926947401211476,2.3452421295130472,36.30306146906219,-184.0688900194186,-344.4177610182607,-32.083671862068336
409,23409,-3.961221289161546,3.8008528171517644,36.88071475258562,-169.20372449271758,-340.13046143720817,-46.53648962574438
410,23410,-7.959687987942691,5.19200348080726,35.30692389222082,-167.1410412306107,-357.27957214009797,-58.50928996399853
411,23411,-12.889820181534018,5.223435207166817,36.44872164888642,-184.6126532989144,-402.46060551934517,-67.93946510045608
412,23412,-19.58475612421839,3.6276876397775006,39.928023725826364,-181.14585199311918,-455.39984009681484,-75.11281260467308
413,23413,-24.1661125270117,3.080345279917241,40.34238384519979,-135.1931155943001,-482.3216169776175,-78.19999891155872
414,23414,-34.83148434505034,2.2907943763248872,35.513254950955314,-91.8075273533762,-458.4986500936389,-74.25355387783554
415,23415,-44.01920032119776,1.4523371192336945,27.480084263217982,-98.68462646388282,-390.32537518909294,-67.13185750700701
416,23416,-53.043903105074314,2.5435327074403546,19.46396141481146,-118.43031026377969,-300.49815754502004,-57.05291819557702
417,23417,-60.01864471959678,8.853618096995373,14.424548187145094,-160.98018362318646,-213.55100000613163,-47.98720296584949
418,23418,-63.11730565398186,17.303091076446538,19.973653870882803,-218.3037446811786,-142.51632730031906,-53.09656659544186
419,23419,-57.68747884268337,22.43712447875314,31.29260310031724,-200.05700133866284,-62.98109601836406,-76.26512176989748
420,23420,-49.31413913497214,18.036843762615444,32.45260894795817,-45.48662651602083,38.1991207819774,-116.28280873245706
421,23421,-25.890834423959287,7.32818103046785,46.12203294655857,110.94905282376634,106.45274522846108,-144.1045439910618
422,23422,10.219922108258153,-25.04648437501895,-7.333356702680186,-548.7595430663663,520.3651648136647,100.80344411386004
423,23423,11.261886270557502,-3.109405119970746,14.035617335493273,-173.6363997267252,452.4639300124634,-104.65208942355075
424,23424,7.083701813221114,11.874702667702262,10.237336543666691,273.61782535712587,620.2011931491221,-28.267787489497508
425,23425,-14.651225504010847,14.870312908324268,13.898154811964863,95.7961524617614,696.3829505582872,-121.30814460870286
426,23426,-18.733856841150065,6.5332318244102865,20.32516526453832,-54.81606942490382,529.463861840926,-77.99756711865489
427,23427,-15.706487424118194,2.126943669702594,19.817628378096163,-159.1489511108966,325.6800787218655,-9.464286614059432
428,23428,-7.476583880033408,-4.014294886489978,18.18512930510672,-150.83928434276217,215.38597890898097,48.85119171401555
429,23429,-3.1075806360980582,-5.829117007891986,16.564522439703033,-71.88520929105032,147.3311909402637,38.088574562004425
430,23430,-5.542862448326173,-5.416585413542981,12.990275859762404,18.060401052887695,111.83735576717379,0.5262515940071223
431,23431,-3.9329452966667686,-2.615446143807526,10.679520963419602,55.856110232104356,64.19383669738033,-8.075164420703151
432,23432,-1.8405495500562277,-1.834060203342856,10.198289093817147,63.773738753418066,34.158732769119155,-13.708912077204872
433,23433,-1.4096579468086472,-0.6747569254693173,9.297767316057895,67.23252997338454,21.959701047735745,-16.121619932198833
434,23434,-1.330968257051949,-0.11065643506988647,9.060221155706978,51.17953923014535,13.569680445717083,-7.524933275459516
435,23435,-0.7737625099884915,-0.5191017165478079,9.755088736158742,28.889502727787896,3.777714788338991,-1.9632370481605972
436,23436,-0.7731855489128264,-0.6310183551388885,9.8718387356465,20.743908587768797,-4.951012057730318,2.942091802512342
437,23437,-0.9321594081178655,-0.6699321573692658,9.75750838062129,15.767124382615613,-10.140032134884589,7.8765141803100756
438,23438,-0.5752656161363858,-0.7062713913679346,9.948673469591672,14.438425188390648,-12.51819525921796,12.477238282633593
439,23439,-0.25861621153059083,-1.0451702283785087,10.143279808821815,17.532933792241217,-9.922096359017223,15.529597873982393
440,23440,0.21336894170289844,-0.8623049736987004,9.792253937871745,23.02637005014037,-4.364722264121714,16.066441986727803
441,23441,0.33120501350715376,-0.5626544120974727,9.595855872045234,20.66054623642985,-3.287363141343979,13.216349112847785
442,23442,0.2509527965292145,-0.4893779004954303,9.402887553103213,18.37785944248257,-3.9275090269234956,10.899191523364435
443,23443,0.8065118383685536,-0.4112597230859942,9.707372894676869,11.726234232498085,5.129175172149519,4.146871046377897
444,23444,0.7259911111467828,-0.5644687525427936,9.55534719876228,6.243734502391829,10.277880669481581,-2.183524147589142
445,23445,0.7659590001610356,-0.3754171464479772,9.553121522421431,0.5649621138772702,19.223721380387847,-11.28764627183571
446,23446,0.532314511203026,-0.1423262922584475,9.937003445335781,-5.902379200393602,28.16133695062625,-18.040523035919666
447,23447,-0.49785027583116936,-0.8978299748650906,9.796254085746055,-4.632494543442997,29.364499291799124,-15.628122807608378
448,23448,-0.49155163270445623,-1.4510477345164607,10.842141785460251,20.72422574378456,36.00289319427012,-9.95516555296783
449,23449,-0.2387549890669489,-4.284917766991149,13.95265602105262,55.607521995699805,40.610548662138676,16.624253182435744
450,23450,-1.7691932093497134,-4.8617273514412265,10.191793483513122,78.11355510439644,45.18621067193325,29.526782037513307
451,23451,-0.895642211685421,-3.9900803057481555,10.48617204917974,88.66500197030612,48.483527307583074,47.45131432796812
452,23452,-1.0976727650499207,-2.1146129021057702,9.234543876843516,98.04020231052064,48.10771893335688,50.59624205369638
453,23453,-0.9772517450454273,0.5250346152532644,8.589397722940422,89.40054295203595,40.222148215741754,53.519435223611694
454,23454,-0.26044664345951785,2.0398767457691633,8.839175440447601,75.58358026082104,37.07583582171209,45.51666727246726
455,23455,-0.01943745851706915,2.2724878403053834,9.29768367602918,51.113107011755,38.70978044380367,35.92204949507466
456,23456,0.07044735815996747,2.782134443773533,10.601406905875535,33.5456668925614,44.952162590994796,28.26068317270929
457,23457,0.3935680587251025,3.472233917871464,11.324233732490121,13.620675243015402,54.389783980698546,16.907268445275893
458,23458,0.6781433026711466,3.97593404975126,12.241843611393643,-11.329584577055321,67.58999470433537,4.316066489903201
459,23459,0.5680442826239669,2.8997629040918373,13.756140851099484,-27.38482634152931,85.2385840606796,-2.6142329917012863
460,23460,0.21921995758419752,1.4822467419571308,15.159748705849209,-34.39769165171635,105.00093995438846,-4.410910374546957
461,23461,0.1854143081613057,-0.013559886584297928,16.44703475916802,-33.065507911964524,127.50362732466813,-2.260732833083731
462,23462,0.31175671315685655,-0.6396520938293724,17.724202533204522,-23.69696411380123,155.86322974256794,0.4916258411203164
463,23463,0.4751342730827327,0.16075576282628937,18.177032338810218,-18.106522485533944,183.63616941307015,-1.130067942469047
464,23464,0.8847978456349198,0.3373385098125618,20.098988134972505,-23.363315835261755,217.93755335851878,-4.236560144200018
465,23465,1.7346882441741336,-1.5861497566277034,23.504873783590522,-18.571055598192824,260.71111653525577,-0.5433778965450581
466,23466,1.8310154900946904,-3.6633167073624744,26.56957159710454,-5.55922923383812,314.32110619365494,11.465925904890895
467,23467,1.4857770500997902,-6.166406878638313,28.83218245390863,4.927513733083413,377.14154287160625,35.61839715891358
468,23468,2.7235576690141814,-8.481208983529587,31.392870363324782,4.7296750209070595,442.2484304893591,65.81314866122199
469,23469,3.4840726157204926,-8.728873610221664,32.81683660810738,-7.94828185247703,514.6142293748728,102.17187164169263
470,23470,6.326005385240862,-6.597598558360947,37.09365620103507,7.945562228987574,586.1428877611087,114.53396354131688
471,23471,3.71710573113056,-5.840050574226495,42.029212809017906,15.840217100777688,640.285801020315,116.47832474128224
472,23472,1.4520654238389339,-7.969491928706,51.73168802874054,2.613517833993647,661.1998080177048,103.58585581154453
473,23473,0.5195943982972542,-10.008667489178464,54.57010451485324,21.4649171787891,666.6874090094693,126.61961032690347
474,23474,9.128054776842768,-9.443169532963719,59.14246966069358,110.61621601844678,657.3427696234866,152.68401035153082
475,23475,16.74938526550283,-17.195683904460683,61.26660761552363,135.85770612635628,663.2646880743179,182.3221213561945
476,23476,23.105362697487045,-33.25922191684234,28.472682218630293,59.03291641090544,608.9813178730859,323.74650827289383
477,23477,26.495956713891054,-18.542842324908644,-25.897659999324993,5.632231156338517,269.32937746698553,353.3401433193752
478,23478,39.78255786282136,-8.853503788243303,-0.7622155005995451,-136.38329814084523,-145.67163818109742,313.5228549285317
479,23479,43.221224611650904,4.914088167189651,26.960477509695508,-1.7558569183792567,-331.4766545220571,179.40582018822258
480,23480,35.76738509659956,4.170100989419546,34.40194690992028,235.3437733422139,-309.3232767442407,29.579304910737076
481,23481,27.339403436833,-5.085990767976278,14.360110881612083,326.79986991281623,-297.95379085269303,-62.22840127430561
482,23482,20.638100354018615,-14.821390371475825,-7.110575104646962,221.64382907987923,-343.4347926442304,-96.03203458710937
483,23483,18.31205121191997,-17.176045943388335,-11.002445155362004,-29.840373756729928,-395.5619787591003,-88.31840105200801
484,23484,17.05089110194516,-17.017099652607584,-5.258454981013724,-196.98356767612356,-428.0219919781253,-78.51428110307262
485,23485,16.043423165117748,-12.987670700495062,6.798410869944306,-222.97185290187426,-455.8185631047731,-75.36714035368253
486,23486,14.060022281933653,-9.308241423410418,15.204721383763193,-177.5578894397622,-482.17996406897436,-73.24922855198928
487,23487,11.394666807969703,-7.602899865950385,17.511162424697538,-134.55498377890217,-500.94147651752377,-63.14447294918156
488,23488,8.544637228740445,-7.302637844004985,16.675048266347577,-129.56983983639125,-507.03332064796,-42.49321785207264
489,23489,5.897916849154045,-6.841595167273739,16.568032772328447,-151.65000746104656,-500.2430114962115,-16.267849899933747
490,23490,4.132107866389501,-6.3237924806553165,18.035188733971953,-172.31121894610433,-484.75841566776876,9.192929191205323
491,23491,2.768141226417194,-5.003700006106544,20.146533558313244,-174.8102335865387,-463.95623650794244,31.18091859597531
492,23492,2.2713986798027896,-3.2003990783197156,21.824590832781453,-167.74516543400273,-442.30060742795496,46.49841002280878
493,23493,2.5955774451080504,-1.3784023517029114,22.304193069069246,-159.7607703347519,-424.99003537628863,53.14225540459982
494,23494,2.922741170029714,-0.19113036321090013,23.406867160598058,-164.12560730796667,-411.1355394926739,51.07273184163509
495,23495,3.2163880288343907,0.7814544340466621,25.3979360491352,-172.28430103695806,-391.76197480584597,41.771140655849194
496,23496,3.2378209777091658,2.1396633757008767,27.848488765550055,-186.97719360125672,-366.50033997198096,24.193517807581266
497,23497,2.8960332302960743,3.145772958898744,29.380210277454836,-200.84644986432068,-339.9626961160417,-2.4447194029241524
498,23498,1.3823726425711163,4.632575662114375,32.56905452111751,-205.1819856415319,-319.483858449125,-34.713898541155025
499,23499,-1.2076713356234008,5.050175571429398,34.81184967646826,-192.10649374517823,-317.0413412816431,-64.7494427448094
500,23500,-4.959211155761766,4.801764133690401,35.14175119901603,-184.05458238102014,-329.2741874610541,-86.56437579736985
501,23501,-9.901019579937895,3.6438358558712873,35.10225415529891,-185.32940353375906,-347.3817827746365,-97.70626455730482
502,23502,-15.868873576906415,2.4913674970954776,35.22199572738293,-181.6811452590913,-370.3271429836024,-98.19292017022754
503,23503,-22.401329969393238,1.733552647638851,33.64557136408516,-155.2142723721683,-395.28046854346906,-89.4316819407614
504,23504,-29.417102440033084,2.7679446808434953,30.20354364669524,-130.62118835680926,-397.0544905217935,-76.73184189242502
505,23505,-35.681619602356946,4.403681952706967,26.63570376645828,-120.34088686688511,-354.828000059037,-69.1565580612141
506,23506,-42.304272953643355,4.868189208105511,23.120733770190345,-108.62248047522074,-285.5966829759409,-64.52776515950873
507,23507,-51.194831770290335,6.327107165079919,17.102961750459155,-108.4648080856116,-218.169263981547,-58.07194531806962
508,23508,-57.60876208517855,9.523651647058982,14.174002984124577,-145.69282605770866,-163.39647895091852,-53.16542380146196
509,23509,-56.93660784456739,13.287344678590213,18.328849514825734,-183.688052661273,-94.27063656669829,-61.05081367573182
510,23510,-51.250839375003174,16.122205424093238,27.629603998923354,-152.5030085725578,-4.2290145363097045,-84.25361072440356
511,23511,-47.47698978773629,14.717329016182157,30.89950327779358,-18.77649293031252,72.67555900248264,-112.10223969174046
512,23512,-39.869746613956345,10.365984781918671,29.944362283770328,115.02758220447039,104.87404461056207,-128.11465884134614
513,23513,-26.03088003551524,-22.789869654079254,-0.23962899431188936,982.3092806687952,515.9652368813465,-244.54714809950826
514,23514,17.899006654861566,-6.820647622676634,9.881523732642394,809.3214469622626,546.6208396732387,-65.36105348810214
515,23515,22.443026776400316,7.289963403489658,5.12374366714093,413.788407832713,672.2059763943188,-104.25084517946303
516,23516,-3.825626689006815,17.664255242073192,2.2190679993162057,145.16639364451132,664.9699177715813,-145.7539606812965
517,23517,-20.58868030672341,12.42015268743906,13.222732189671914,-88.37270708118939,457.7268615379227,-105.11307093948754
518,23518,-16.730300736957055,4.095101460330748,19.609193769262987,-119.68991826860281,279.9954685298143,-4.218058571334575
519,23519,-7.555762056036022,-3.035076210652569,17.828390494054954,-129.20109493143676,186.74426389292464,42.835798023984474
520,23520,-2.009741250813422,-5.659975934541548,15.363048597632057,-37.29561786207951,133.86371648655586,22.223143174810023
521,23521,-3.807380161223038,-2.9793386221227403,11.761295022363898,37.34011992242272,102.61526828458707,-18.8318200169432
522,23522,-4.921467228282919,-2.7268053271003247,10.608706582192621,48.30531161375736,61.680928181540345,-21.924839989841217
523,23523,-2.4701100944523953,-1.7142543639511025,10.50836083836451,55.780630213751486,33.66334713238241,-10.709062531217883
524,23524,-1.4472897303405652,-0.36981873382207076,9.448771406175268,59.71285402682263,20.171334227520546,-16.523327407972094
525,23525,-1.4895974161278798,0.34070639101444644,8.825088888130976,35.402913172502736,12.35099412159561,-6.365171269993369
526,23526,-1.210940471418312,0.042424205619914425,9.212047131812232,11.198828241756436,2.0849296955042442,-1.8165772606122688
527,23527,-0.772324101358129,-0.7424045409546329,10.027100210323876,12.998227788360225,-1.7212985202623399,-2.436358520030005
528,23528,-0.6531497751615891,-0.5909152585908404,10.063391760860279,12.329530898520893,-3.9973035500882332,1.0615016820836836
529,23529,-0.5748127736515996,-0.404113852364367,9.906920463951629,7.068075233616031,-7.935888100197086,4.9517240987631554
530,23530,-0.4938914294775179,-0.5514710035851269,10.216233591075108,7.223424750589167,-8.811050282682759,8.5810802945533
531,23531,-0.060251424386964285,-0.7052881814622343,10.138634488018416,11.106186534387398,-7.61216364693623,11.639430002155121
532,23532,0.17545267169194786,-0.5578972348267899,9.904746552799503,14.276994596369088,-4.685467975477792,12.130904065509407
533,23533,0.0955691191959178,-0.3332767273352957,9.710157468632268,15.095615441634811,-2.892439045708473,10.219181540181012
534,23534,0.17439890377869544,-0.4092055028140186,9.710568411626207,16.459557695365756,-3.3344446541143817,7.501642711879043
535,23535,0.4904793354264257,-0.7491652453752649,9.828151800477116,18.547535763105966,1.2762525091950288,3.938405734743605
536,23536,0.29255141453238465,-0.5609346650044659,9.711590017423418,17.972997735585704,8.192616697403462,-1.0226144611914791
537,23537,0.09414668680075614,-0.3359289912119762,9.517600092684184,16.999613534103435,12.550150970944731,-5.834116208062882
538,23538,0.2529122494120392,-0.03375455450106639,9.513559682996425,8.18226419494468,14.752785453661797,-8.483842219375825
539,23539,0.09375405796604573,-0.1483403546761697,9.400039710583819,-0.8016922030528305,20.727737159397,-12.415704795478831
540,23540,-0.05882899199180264,-0.7026359175855538,10.331191863966499,-3.779452599916193,24.171498471641307,-11.690449076192452
541,23541,-0.571303078492007,-1.7534789487613673,10.845782755529346,9.437430516251373,30.13023503628115,-4.4088766013902
542,23542,-0.20235700886236452,-3.236247240038706,13.170881440874465,29.99964416091028,35.15356200835586,16.239244289360297
543,23543,-1.170480404867417,-2.7054098831955065,10.281236207482682,67.36766165376197,44.344426765660835,20.500193300590457
544,23544,-1.1398483441287557,-1.9311394990056543,8.80909141303555,75.3767470043415,43.015734300880766,31.703066126078525
545,23545,-0.9416519129908831,-1.8928845383176114,8.884710573061811,64.95823427840136,38.22411492862848,33.6087339741242
546,23546,-0.7347721990022147,0.08243270881564839,9.478825629121241,74.90431342420547,37.65346530398743,39.09428289483275
547,23547,-0.33057777449244485,1.1527572062045572,10.351247003812594,61.750410046432776,36.60009607145823,36.66695701545209
548,23548,-0.24560541784423431,1.389595025236124,11.080134444958821,50.79026190231351,43.20919026640298,32.59491128671523
549,23549,0.0399394160121851,1.5937898819890324,12.232054705450468,36.479003359067015,51.62835352564302,30.119279642160922
550,23550,0.4011048020060228,2.8459964241520495,12.563489190765008,23.52492802933331,63.84758824643907,25.16015653194534
551,23551,0.6077276851591873,3.0882840574113177,13.715403699569018,2.0844835954825074,78.09070266647045,17.184681151076806
552,23552,0.37853851691834445,2.0114371725022187,15.153277148323628,-13.175458226647917,96.45971811377134,9.357546976250159
553,23553,0.4211227010670908,1.4144200445827904,15.775744092449012,-19.360888244345325,116.90725528388056,5.202889109773167
554,23554,0.5476893788915984,0.29911211457367776,17.25073672941554,-18.529510077109315,141.66260121919757,4.20093450014839
555,23555,0.6686707782004101,0.3786425684200971,17.557418988891865,-14.417886013657212,168.81755255148656,1.746178457975662
556,23556,1.2287539480607383,2.197747151333566,17.881777005565187,-21.781547603686626,193.37504982507062,-6.485188879898407
557,23557,2.041433453082418,1.3332647921111265,21.23800554222644,-35.19684154483837,226.4736746552718,-14.407086751560513
558,23558,1.5850741775974873,-2.549214969378375,24.979643693997172,-30.770973796694516,273.57040633867916,-11.481910501024819
559,23559,1.956952981311057,-5.269431718461633,28.12685467143225,-13.915378681636165,331.5633696015975,9.005088003887355
560,23560,2.689788268888564,-9.148336804106384,32.4016618815776,-3.2012255764371673,399.5758158634192,39.86452909606455
561,23561,3.9023506638196532,-9.666152721392836,36.29140715104342,5.289946124828098,477.24196189008063,76.07178428720624
562,23562,8.220661547365397,-7.700694051680064,42.60397125260696,-9.113408511688815,557.3052682540896,100.56241832791483
563,23563,4.611367719404864,-6.812993180146659,45.77137223187555,26.732274593040497,633.8431521106426,98.57075967489514
564,23564,-0.7790048821911271,-6.153115556316533,53.95769362747408,20.873756400563572,672.18006105647,101.64174662914532
565,23565,-0.06063785892012233,-7.949805941007148,55.5525183363829,0.12784284333373747,689.6612706782156,118.62177874744698
566,23566,13.273238451877761,-10.479283231303032,59.05541629560449,39.56194769244302,673.1440660757306,150.04683961974357
567,23567,18.128021689330087,-15.399963143892291,60.08482398380589,118.99984500177968,675.110299066794,155.8191553277214
568,23568,25.941092681291902,-31.93045963503129,32.180338701146106,102.76860130659232,669.7120728952295,203.08023346628912
569,23569,35.429475448873816,-22.47974898783391,-23.936571545708432,42.483784487089274,536.6384864795192,302.3569759262508
570,23570,35.752283071263165,-12.906100187401885,-10.173926520456325,-159.42050456013197,-2.6340879691123114,345.5046080754392
571,23571,41.25839155613689,2.385760452627758,18.793052088758593,-105.49459699788935,-305.2501954123025,250.75796105915333
572,23572,37.34072454551666,6.372669235363561,38.06816355110017,95.52416315667968,-366.61596273521445,103.05193588241117
573,23573,28.273875087134357,-1.991559035865004,22.180047871290583,296.70065635244947,-319.43487213427386,-13.228214853555519
574,23574,20.830491843515066,-12.573309803062482,-3.2067046103089902,322.07996481257834,-330.290647493884,-70.03888010268636
575,23575,16.58804453404913,-17.518832156865212,-14.302602539417258,118.07099786511546,-381.76268504395193,-72.200696635117
576,23576,16.779759221108183,-15.838510888117316,-4.923014596137238,-152.58851048528535,-420.3717915482759,-56.34241646111374
577,23577,16.18282060121453,-10.463296390302627,8.773665794160356,-256.9892294575019,-440.88401505824106,-56.537496832511536
578,23578,13.920470298724236,-6.373137836457031,16.714779539999842,-232.66393485286866,-449.88093655725623,-68.30286971948087
579,23579,10.571101545272015,-5.10302776966746,17.488613914477536,-169.27688185813494,-450.27185950344057,-77.4306009719383
580,23580,7.2754233151827705,-5.160973761948444,15.271930288960771,-136.98212772787778,-445.02610988310204,-72.23389417683987
581,23581,5.966561642851007,-5.053307538451792,14.545587440147159,-150.33030477546598,-438.47807825466737,-53.39170881457992
582,23582,4.079763272660052,-4.502057761538036,15.666334093205815,-176.94884059740832,-432.9266061072122,-28.939804929879102
583,23583,3.2347776589084165,-2.9476006499453513,18.427346490411423,-181.614172062392,-427.1334986223313,-5.755598517680809
584,23584,3.135097101765901,-1.1418704404011546,20.372986893113623,-169.58138599312733,-419.99186146455435,12.758471654190206
585,23585,3.264625380390156,0.12118503709523891,21.437337725886884,-154.77451320863977,-412.72391633085215,24.457658683050166
586,23586,2.9942867453402022,0.8116189843721394,22.04762592407262,-148.2895910324478,-403.7138874093243,30.706343180456436
587,23587,2.7305232517783935,1.062343168914759,23.702586248053652,-156.9722316185553,-391.29123664378983,31.79466610554925
588,23588,2.3205478499799983,1.86291164682589,26.77759735499959,-170.97931687797313,-377.12584153141165,27.19208641000437
589,23589,1.5173451864724883,3.421483991854265,29.846501833912793,-185.1357810923809,-366.4720259956216,12.608760560041448
590,23590,0.5119632811206531,4.934375037339893,32.30062650014511,-193.50319952485478,-363.69480960003705,-12.66841063656222
591,23591,-1.9223443314938584,5.573172857667739,34.15507687652455,-194.31432668758916,-372.5542653932199,-44.723587936342255
592,23592,-6.216993990161817,4.893214533236473,35.99458430447366,-190.63447999992823,-389.8617380743816,-76.25297958151576
593,23593,-12.09328451275878,3.3119191424744443,37.96733954171626,-182.77439872720902,-410.2545903889828,-101.2464733677012
594,23594,-19.004792377244847,1.3423405505473434,38.986552527324136,-168.7512867618416,-428.38288863107397,-113.53208104266949
595,23595,-22.765720251191283,1.0764241712222553,38.04557536861455,-143.03219411549495,-434.4435102088903,-111.57833323193033
596,23596,-30.856778106972563,1.6086229423364011,33.61290921812855,-121.12274390725341,-415.464759634413,-98.37995669753236
597,23597,-37.880856602327555,3.418474654048568,28.775959376480067,-125.34290447237247,-358.08845813550465,-83.57034849842876
598,23598,-43.822850298224004,4.801594142352915,26.17214495665298,-117.90624477768469,-273.16579394461735,-74.8799956934864
599,23599,-50.801808195471764,6.358135433548936,22.18508418851085,-82.03001312296117,-183.68034556571243,-66.06552995020927
600,23600,-58.06411491591968,8.844500931612266,16.95692447030874,-57.291847502283574,-118.97136839625567,-53.141331979196906
601,23601,-58.049008265815154,12.488426794016505,17.765278559075195,-75.19159516064408,-76.3294663872774,-38.79882016061369
602,23602,-52.37733201349407,14.769713179016325,25.33868933792831,-69.70035839608876,-12.005470173096729,-37.720009942172545
603,23603,-44.981827869786656,10.692304662643247,27.732813856419885,13.665277462212911,76.6834335093779,-49.54368097626585
604,23604,-38.59440425010271,3.530799794424277,23.03911885345435,115.28299015068096,138.5774423674504,-55.223207197500216
605,23605,11.10462995485822,32.489771387720765,-14.154804963894952,131.30448846695953,165.76495250679483,-41.07445065031049
606,23606,27.928897128832563,4.212394838173495,0.005766806813156901,85.97221251663188,330.0756910315897,-57.613663731484046
607,23607,20.968435755084933,9.75816005750305,-2.829983317612697,246.15404560497444,453.7283511931263,-112.0190853168247
608,23608,-7.730684110788423,12.641421298106252,4.796381782809957,144.55581616601995,602.3666098640061,-149.87670168904262
609,23609,-17.28262507826615,11.331394212648261,11.869399450627794,-21.87564613276368,542.097346881845,-151.35420633620632
610,23610,-21.071148725998306,4.156077920853658,20.285452835206875,-79.3913899090341,380.49683731515915,-69.91595639278908
611,23611,-12.161318558660506,-0.08864740968037087,19.129948137608615,-86.08324139935202,240.30953890220295,11.22278992675643
612,23612,-4.21269194571051,-3.75196851779077,16.008668419863067,-72.1279867775811,161.525972133334,46.876302465102846
613,23613,-5.616546906397422,-2.995885607328426,12.887720105398431,-7.1185415298568175,115.57198370581048,6.8086759726669115
614,23614,-3.885889210029508,-2.074200585904048,11.520901019493587,14.68921288392323,60.02279670268555,-30.30922951703127
615,23615,-2.4719890606230703,-0.6254976381579538,9.880426687447851,36.89202003631683,37.03625537528234,-22.349605754856555
616,23616,-1.285851955771586,-1.644555840117675,10.347512960713425,25.86675386372737,21.16211405301829,-13.271549904973943
617,23617,-1.0505804291153862,-0.7446885362376603,9.797429397851515,42.862195092448516,14.217385651480663,-18.261958674956258
618,23618,-0.9738901328295149,-0.07132367112382927,9.250575862064757,38.06476067378261,9.440632099627676,-10.80642318308187
619,23619,-0.5356983440744438,-0.2166536045955589,9.78916036204193,20.247704138893205,1.3401149805704247,-5.4536220649992995
620,23620,-0.415931080567038,-0.4030360491063526,10.021656010283145,13.539806039069951,-2.760931197856696,-4.13620820886519
621,23621,-0.3361556704266861,-0.4395374672867042,10.137196187539631,12.679436145587928,-3.1656632207180335,-0.5020341493165067
622,23622,-0.05968245142889962,-0.7042272759115621,10.215657438397649,12.186621657628864,-3.6860511639192715,3.008116589647847
623,23623,0.058454083089588764,-0.6300013498185038,10.13722494597781,15.454744132538039,-1.1804555549749056,5.511803341860903
624,23624,-0.06285174328625717,-0.14517453573149527,9.593395965769236,17.785817762969355,1.0225052451056071,6.230838116763898
625,23625,-0.06372117895855492,0.07918919422600204,9.398407441983334,12.029506988699627,-1.1277578437079736,5.9991275620819975
626,23626,0.015769744702764703,0.04215732327031433,9.475436144050203,3.4093188303367157,-3.985021132025825,5.3739893685787345
627,23627,0.4125712120484212,-0.29487648017291224,9.823688944420146,-4.997328795629138,-4.7418654333710455,6.431823342831683
628,23628,0.5308158889225877,-0.40876964339099653,9.824305358911054,-6.990970836905973,3.1270168274464303,1.1398962541256867
629,23629,0.2539979697956931,-0.6343564630808488,9.866646020603824,-8.29600131205447,8.337920297076707,-3.737511225399183
630,23630,-0.06119704994453859,-0.7447155387606056,10.02350525375587,-7.730051167554226,16.239056408759158,-6.435100738622693
631,23631,-0.058644659750848004,-0.6269639196408279,10.330381481353893,-5.7190119406348945,22.972651776581333,-8.921758662958561
632,23632,0.06788207748565758,-1.1773841289411764,11.606738872777788,5.5701623420272215,29.53143911063591,-11.673931698338782
633,23633,-0.42386873346006165,-2.9052053713403345,15.171434939140106,28.003594145670398,38.640819947416524,-11.233552002399765
634,23634,-2.324535966477696,-5.316083707472948,10.045405955760964,55.6785665667783,47.38424934561437,2.282758173985005
635,23635,-0.8097721581852385,-3.0359498645677006,11.091826429937356,57.68902195205064,57.81321897696574,19.152418897362207
636,23636,-1.1759292798477605,-0.7570342365447312,8.873753152728716,65.87874101017725,60.19175046675928,43.3171623081024
637,23637,-0.8567231882214019,0.30240753009611615,8.93783298805679,53.397055162510256,56.57463612723288,41.9733270361858
638,23638,-0.5745479546984953,1.2159382173678714,9.388848060315576,42.32236468165081,56.14310060779399,37.90780797556412
639,23639,-0.41241279175369927,0.8087768235599346,10.085712838860674,34.78270207200436,59.974363256009475,36.26609804811912
640,23640,-0.16922786921706962,1.1207730854682336,10.81299101815696,27.96257421936367,66.23409723683464,30.485359100305356
641,23641,-0.04660345597486701,2.1073066091006916,11.032925735902776,13.660118208037995,71.56614253917107,24.111811433665398
642,23642,0.3957917250248857,2.873753820393026,11.83136597085599,-1.7936345479013627,82.05625047767786,14.3820220216457
643,23643,0.25109810659466614,2.0705198479371845,13.920698719071291,-10.830015332002493,98.8134079043205,9.161789260091242
644,23644,0.13917603720001398,1.292262619078641,15.085151151620158,-15.427106071035807,117.8238035135431,6.345629739956907
645,23645,0.22591122954562107,0.7414403457699548,16.323196787663772,-12.202785316119728,142.43609026832226,2.8270347259320783
646,23646,0.19001831735829833,0.5976510775022067,16.86417792535295,-14.087086899538155,166.57294031455436,-0.4883374078338507
647,23647,0.5070886119784779,1.0128199560622118,16.858123062508945,-18.971198919677107,192.02749652832657,-4.458515028092537
648,23648,1.3534736121849724,1.7192857705505904,18.887743688049163,-32.87700143438829,222.19753666681524,-11.952601890496986
649,23649,1.132061436289207,-0.6989694191254675,21.842151556225737,-37.99233633955173,263.1877310716261,-10.435462882101888
650,23650,1.3484404321962018,-2.961988361595696,25.17785649317059,-29.83977591132342,317.1668307342245,4.4456712860636864
651,23651,1.5899780439725675,-4.83758415400508,26.42928494569748,-25.065873695426163,381.01007406130384,30.193049164908686
652,23652,2.60445584141219,-6.975340649964114,30.799589742656405,-26.837306863481956,451.3151552785293,62.17961724090173
653,23653,4.411756218236723,-5.457242982001304,34.279344132545674,-34.57418856402232,526.7282386126681,79.22566804014741
654,23654,6.070348213454183,-4.297895448782031,39.1503624215615,-16.21430997649673,592.1236555989709,80.84686809949656
655,23655,1.364292732475068,-4.066960015037092,43.83259653139995,-46.874284399715556,644.3287489768344,76.79844606820448
656,23656,0.36476492875911304,-4.277239295774072,53.04587825832706,-46.40882464376638,662.5916678386674,84.53681086698546
657,23657,2.209920443532023,-5.472633572001671,51.85519662690565,-12.975311275042682,661.0601996814536,87.26039484155042
658,23658,12.111975476416614,-9.0733323320578,56.46554206273134,60.67905079124483,665.7086169758484,120.94439620311721
659,23659,20.015604085901607,-17.49091074023087,48.85015199459262,43.410901251045075,658.1184839248709,145.6176501155963
660,23660,27.4277632825895,-28.455186063882348,12.876298654831094,-103.45105830493746,579.8136769459823,341.6658788178121
661,23661,23.56732683814736,-15.45594023593779,-22.256506175115653,-129.75821592900655,168.35438289949175,320.304569060504
662,23662,35.3057084447308,-5.852338528093647,7.278856052824657,-169.82914368146768,-203.723456799371,305.3945175806395
663,23663,36.76928187668076,6.341797921110701,30.213608587327116,19.115389779866526,-371.0749977313599,191.00447353774194
664,23664,29.388806689460505,5.022057189591114,37.08308428968352,252.94981939853378,-343.2689036803671,77.13610550397621
665,23665,25.12668649393895,1.24357036024644,28.285918852572483,362.4798279535565,-324.59193919125767,14.805649917522011
666,23666,18.728870247809613,-9.118919995185012,5.318170636344567,304.6704451095647,-357.78355500779855,2.524879560704753
667,23667,14.47312734530193,-15.744920571951791,-12.384882710322355,49.5970259838904,-402.1607272807909,24.201180270182267
668,23668,14.960859409120275,-15.608021959797886,-10.57845558804129,-181.02504570837877,-432.44384371568003,35.963313393573785
669,23669,16.572942163130737,-10.811250386947911,2.8435380362008504,-242.7658156635651,-448.1779753505426,21.027164383803782
670,23670,16.074526486937536,-5.624366292821862,13.883948244212107,-200.0840267251288,-456.91100591243406,-7.741977863858854
671,23671,13.460025578076342,-3.4460248365483706,17.571740376487682,-144.9044217720904,-461.7006663565622,-29.93459314298981
672,23672,9.93338735593126,-3.6801800772564475,16.24404495571962,-130.98828342861754,-460.84465965670285,-35.670634653930115
673,23673,6.83860603011726,-4.3351262997495175,14.687540870280522,-156.45565936000546,-457.474948258522,-26.581538030275343
674,23674,4.912909515060506,-4.347574949226855,16.084145439070376,-185.0689627450025,-451.1055914226069,-11.00805046202096
675,23675,3.8730810942693106,-3.3147535405575534,19.39098976626553,-188.67767683391395,-443.1086048713638,3.378645360220542
676,23676,3.5017795645077583,-1.4612709134912913,21.992318094550242,-171.59915884820023,-435.7711278941676,12.560292970445662
677,23677,3.4321657864365664,-0.2758977539813118,22.865920533034693,-150.5329329302682,-428.2752929605933,16.772623404972183
678,23678,3.197467529565304,0.10588483222098932,23.055624314775745,-146.83547673182463,-420.4806565507152,17.48738653063919
679,23679,2.8107312313414576,0.27336539348983696,24.134322052953134,-156.6507940911701,-412.14984741156644,15.458695871717955
680,23680,2.0809168600178363,0.9172515523434707,26.750413981323554,-169.13875000339644,-402.7892200365438,7.6607846644697295
681,23681,1.2311029642402522,2.349713422613689,28.896458349414207,-187.2233349953525,-390.32118239538676,-9.400052522238024
682,23682,0.10417068662154078,3.782013108702224,30.966877805790965,-206.7127091801703,-381.26596610874253,-35.82230401140473
683,23683,-1.922981506219599,5.195343320719445,34.19764026477719,-209.09961538253893,-379.83639546275595,-69.20820916833064
684,23684,-5.49586567456722,5.625170646390145,37.100123493584775,-190.33564526900443,-386.65749283982035,-101.79576524853094
685,23685,-11.298771596271024,4.52275559812677,38.14293639967596,-167.50604693542255,-399.7183308611137,-123.98103465248438
686,23686,-17.82689678663155,2.8690771871661624,37.46200055709065,-148.25250784217056,-406.8108918135338,-132.03475501350957
687,23687,-25.632474319033363,1.8351356549621989,34.777970786336795,-128.45153231196392,-397.46457780840205,-127.18907371326074
688,23688,-32.97288208875399,2.1389399512198684,30.420964057690508,-123.74766836585057,-361.6017334699786,-113.01899959754606
689,23689,-38.9255701403804,3.200805600608547,26.472489536677262,-120.55374104838941,-297.40068662466194,-98.34125753396026
690,23690,-44.79008459103083,3.4885461522817147,24.03407212587276,-104.17272934785757,-217.7696702152174,-83.4724616618166
691,23691,-52.211365776219935,3.2618423349096273,19.606114564754158,-77.41403891494218,-146.96177306492757,-61.40042586190927
692,23692,-55.265918085357306,5.809566316917009,17.052182618729535,-85.83199533442745,-97.21970575141756,-33.78657121140029
693,23693,-55.74496686632486,7.609729991208322,15.76425139248164,-119.53366813918826,-42.61119560601412,-18.103939876676545
694,23694,-50.94556296538972,11.0556173889433,22.520754097662753,-86.75588786188315,32.90547847706036,-21.21479855651322
695,23695,-44.471285580525745,9.555025186726041,27.703861762898025,27.30104376690012,105.7077468284516,-31.98107438084129
696,23696,-38.348638676192714,4.9022040275587395,23.75505167617415,92.54923698377738,153.35835193046165,-33.90738258543547
697,23697,-33.864350090333886,-31.1980153042418,49.54065563045507,-40.64192289353473,480.0506117581298,-202.9271004789583
698,23698,-11.889518135946975,-8.199262807051266,32.00349619759507,102.5704252424969,415.23387206209287,-106.08653416904166
699,23699,9.600446930331284,2.467820374140096,6.473289489755234,292.30773752107916,558.8192537796986,-96.96132675716441
700,23700,-1.3346924203144601,9.63741337956452,5.219663513981632,82.59695620651321,591.4218156514996,-147.68708194000502
701,23701,-16.818521973978832,8.976064819527732,11.314452546062338,-67.05304856149739,467.3561983980892,-98.79226451613384
702,23702,-15.794656728267288,4.181657751949749,17.87016853638732,-106.26904132960435,300.2717331106606,-16.82974622188681
703,23703,-8.902359357428509,-1.1537637216658834,16.736600096947875,-100.33102495233054,195.48127502515771,38.807059031938984
704,23704,-2.910978684651828,-4.701574868635459,16.05071892400225,-58.45543933828253,137.0179708972013,31.701212172538398
705,23705,-5.219108264326024,-2.9550898738233586,13.193409517515724,16.794018620008103,105.1680484689743,-9.262347742416896
706,23706,-3.7620869102831747,-1.6504329718790092,12.093516883540499,30.114553674822638,55.89012762172985,-30.38034273980254
707,23707,-3.3013970382081013,-1.3379722850985296,10.161899764590936,23.33828044916738,30.129915352246282,-8.858169860108484
708,23708,-1.3238204513150118,-1.9428718209268918,10.659046012490117,38.227969576933596,16.970672676612732,-11.76168858287961
709,23709,-0.8127208685043669,-1.5725463184782755,10.190260039630349,55.96124562892907,14.944388988422357,-12.208534897555593
710,23710,-1.1323871851969662,-0.1470125667758974,9.21367364872508,34.95982691325569,7.100824600078399,-2.2020626787306035
711,23711,-0.6158504068143053,-0.21851863816290637,9.635513900902131,18.525690922266076,-1.106038309302107,-0.36161260816028556
712,23712,-0.3364161925529172,-0.7790005524872986,10.217865859675593,19.560561785287867,-2.375574253570029,-0.48083787418016577
713,23713,-0.2572177434882303,-0.7035853320765697,10.216656037444318,22.386326711391266,-1.5370405585653113,2.5600954187742495
714,23714,0.05949986288524077,-0.6657155376895223,10.291676038042578,23.821330483521443,-0.543281343165057,5.612234003850191
715,23715,0.45456245888630176,-0.5540218812177543,10.249951790840715,30.037449180446433,5.915128870536782,4.611933875606293
716,23716,0.2152122641124448,-0.10558499425144112,9.78415011174568,32.92662833231599,10.235297563188011,1.0441373063875954
717,23717,0.17360565799167424,0.07894931439934727,9.43572059831695,26.910468272843335,7.7345990245685545,-1.1301500750941273
718,23718,0.05500829287079927,-0.1844566065555259,9.516179047268306,18.855440300629073,5.258644338582933,-1.5813824339190021
719,23719,0.3747710725107491,-0.29156537475389716,10.054957515367178,12.653321877692251,2.4527574260925915,-2.0463829924241024
720,23720,0.3743784436760386,-0.10397673821809063,9.93739713326681,8.26515603178842,10.623195274352716,-3.4532880730522115
721,23721,0.294887520014719,-0.06694486726240291,9.860368431199943,2.646394175278763,15.501729452025511,-7.161938396674284
722,23722,0.4551916454944422,-0.06321480012770798,10.16766135347954,-5.347092669592579,23.451505793634066,-6.098613729266195
723,23723,0.02570649840682239,-0.9939107258410601,11.181286408969823,2.4883496885739707,30.441783770192757,-5.383520239343112
724,23724,-0.7305012105260024,-1.3031770282277069,10.533627537574109,18.1565435270216,36.87692396838473,0.3796058942362603
725,23725,1.1648203875039478,-1.0867866324921451,15.683157616718834,59.04784639779251,51.735717378838615,13.352587603372026
726,23726,-1.6153038574699814,-4.003682891202266,9.334422750059248,21.42493480169414,56.266275510758575,14.474506463994663
727,23727,-0.2527181853561884,-1.2978218073523193,11.03188007732712,42.700036077628134,62.88866538090599,31.14368381134654
728,23728,-0.9335498880426255,-1.1244945978129577,9.723859201107313,41.01244944112527,65.2536209701634,32.019563096299166
729,23729,-0.6546361124975538,0.31025283066650144,9.553017992043987,36.0108657493378,63.25487304530048,35.37163002206578
730,23730,-0.9325477401257027,0.7982454636981844,9.202545267020831,33.47032778606132,60.24044847209326,32.409491581763035
731,23731,-0.2495802404330866,1.269191142239666,10.580700841412717,23.544540310265194,61.219271582615946,29.233453698553166
732,23732,-0.6024512811201116,0.748068994384276,11.127331650639599,16.254861615181746,67.10564422573343,24.95213790998735
733,23733,-0.19743165835291906,0.8783284979928077,12.433509035074314,11.291349074753981,74.68352910550009,24.53018269379902
734,23734,-0.15546437586783965,0.9581157293732239,12.74059073416931,8.310861941512087,87.8546831709104,20.901980969618847
735,23735,0.04792900177789149,1.2697099272731853,13.429557158085311,1.7684586278595302,101.26287831848019,18.552086196097406
736,23736,0.05843103714928657,1.6282693123858794,14.735300592775546,-2.9210657379866265,115.19444556938937,14.1408089920841
737,23737,0.18252950278298044,0.546023306371105,15.863284761729222,-0.9619313537672509,136.36011055176638,8.230918134388906
738,23738,-0.08219190128087628,-0.41029130677453746,17.800791533839273,-2.6007356202091128,161.77558672664048,8.675985911395196
739,23739,0.47580340027887513,0.08667512320757172,18.293377146991673,1.284198809393509,190.40164676077256,6.39207606218569
740,23740,1.1579616779492692,1.2717307072459245,19.31723080985725,-6.413668053935763,219.66216245365445,0.31119959501653743
741,23741,1.725445187555165,1.711060533644735,21.120016962069226,-15.403463023244079,255.5272423002499,-7.7379699703428
742,23742,1.6944561417429223,-0.7210979192497176,23.11063935145872,-25.16973035545686,301.4231885268156,-7.990306764943149
743,23743,2.4262057089367746,-3.999401096314685,27.03236022399667,-35.627071327064364,355.2363007379625,9.679866967107069
744,23744,2.9996708171838047,-6.336064818980608,30.59814691640783,-34.999614033371344,419.42217984013615,35.279136997784846
745,23745,4.1423386388553975,-7.062604558205814,35.8001129297771,-33.029442789564015,494.3081572214308,62.835328003316555
746,23746,4.6482022529826805,-4.4813925424812275,39.23660124160828,-13.903607871294055,565.3711818049849,80.74313769235687
747,23747,1.0858247297096808,-3.167234330592106,48.63921447983802,-11.272234693124101,622.5604415597402,71.56518906618643
748,23748,-0.7697403414377934,-3.0473809239307528,54.15553679149492,-13.57387459034322,654.7181265617156,70.46111491348903
749,23749,0.7921738869544839,-6.175225595807228,52.717337629033004,-7.820586413190715,671.7810704986498,72.50053091467235
750,23750,8.120864879966165,-9.777657688739843,56.608946823862645,38.49590146440613,673.0891852734394,106.25195017922184
751,23751,16.822652817510214,-18.335044958288258,55.50063253422963,49.020200120051044,681.4963100090531,135.20921908292135
752,23752,23.438555929538882,-31.34201826220871,19.39860802043668,-27.942090869943723,654.8584758933234,221.06231601340247
753,23753,30.173386283580776,-20.582543294262358,-24.777520830553772,-79.29387035872192,422.0271515803584,338.73224199677804
754,23754,39.09422597902764,-7.98007776044581,2.043802936071803,-261.7133811621133,-89.73657954805657,344.82212810304935
755,23755,39.20255169761722,5.625736744512121,28.244434167991436,-73.56319097780766,-356.3841030866287,237.34180501959256
756,23756,32.19281889214305,6.177150995792095,41.90979922903906,158.71199937249682,-389.0653637131655,106.31048988357229
757,23757,21.351456582206986,-3.906153288085487,21.69650294189081,354.6310953007068,-334.4623867895324,16.674900655801366
758,23758,14.228048711648276,-13.577684473430226,-3.4705030383970055,360.2292409326401,-347.3615995188667,-5.172282446621753
759,23759,11.617135229421324,-16.9623421311036,-13.512881017937122,147.65026647535802,-393.24591984083827,15.735404442406985
760,23760,13.466235451137681,-13.74674628820948,-4.928523653999884,-124.35434184242911,-425.0946144272966,39.213435294517694
761,23761,14.763488158599094,-7.515423266476412,8.171578657560469,-243.37420775336128,-443.8711184100994,34.41674903461149
762,23762,14.648802629538766,-4.83526692152168,13.150911111313038,-229.07671309870116,-458.3269553198917,7.421289199274784
763,23763,12.915810351637166,-1.6574481977039548,18.17167606545597,-166.12869627965222,-471.37591204407505,-23.774877977685083
764,23764,10.026774485186433,-1.7327655128385056,17.532370915926453,-125.2639119966296,-475.77180703785353,-40.787545162754945
765,23765,7.125669759316192,-2.8098541956159213,15.594210583913856,-130.0126171545839,-472.97976342618983,-40.009573324579904
766,23766,4.993005660977164,-3.554867106667238,15.959702556450491,-158.74950908856067,-462.7791764177379,-26.693293027588727
767,23767,3.431960262721039,-3.325541677953301,18.50742275480702,-177.86461501338414,-450.8835871115287,-8.427369312570377
768,23768,2.6618375990809304,-2.08039476897755,20.809139540568992,-171.2980386616181,-438.88036242212536,9.360073980747421
769,23769,2.275313894277712,-0.8955858576575908,21.56880531195926,-157.07924871971633,-427.8666045060107,23.46461810041176
770,23770,1.6881495104986086,-0.0549026154565952,22.02502460263599,-152.03123267033686,-421.60775730423563,33.77058400345872
771,23771,1.3856765011388281,0.9883841251713008,23.517629728235523,-156.6604268240753,-414.3810762148103,36.33214727741832
772,23772,1.7619036942861785,2.4946597527106364,25.810718300382685,-164.49056339252883,-407.19518856218895,29.029810444891623
773,23773,2.0535032309144268,4.254374189533116,27.25411751883283,-169.4488124799816,-401.3127306034368,9.841469358851286
774,23774,1.2768054257861725,5.939230861243147,28.51116217879952,-183.56162646790867,-396.89142532292703,-20.45213014207386
775,23775,-0.9536240142274203,6.739870241907512,31.171734169889017,-202.09184546239908,-400.1858767171637,-59.61296281822429
776,23776,-2.8363836568887195,6.507703548683702,33.10973081936199,-208.5946955518801,-412.36130998546906,-100.32170759555268
777,23777,-8.540770013306437,5.855707141979172,36.65093306879026,-199.3478079491265,-425.8723783816652,-134.3120210957571
778,23778,-16.224251851959757,4.487533023722315,39.940239617177646,-178.59677113577058,-430.15344980572814,-155.7696408577484
779,23779,-25.27439373401765,3.0423909969934826,40.078800864840126,-139.08687642723652,-413.24563016010046,-163.47307390533837
780,23780,-33.45997236814337,2.905642377119986,33.76636012188874,-109.82202744011923,-368.815033859084,-158.1919507788607
781,23781,-40.225175865612584,3.853028487427692,26.818795314884674,-112.18891874698757,-306.0945948087251,-146.73726558589485
782,23782,-46.84048848526735,5.122170323977244,24.027034329787078,-117.01936403672899,-237.64121031052812,-133.42681509004797
783,23783,-53.65082824420264,5.794004459658685,21.781915657291645,-90.00328585193185,-168.14162942420293,-117.79835982883226
784,23784,-58.69371969773073,8.248605507181141,17.505763700813564,-52.7247919671975,-107.83412136099078,-94.32286833045046
785,23785,-57.87913235982255,9.911178287476977,20.257172292108248,-53.582519634123585,-46.16904308346685,-68.74719099848812
786,23786,-52.473773515205615,7.731943694915471,25.375942885329763,-19.501057348461593,34.46764199219433,-48.5087808990105
787,23787,-44.92302670740348,2.2191252414812883,22.507583590824108,71.73439222878316,107.73232807226212,-27.68649179760033
788,23788,18.556207795777915,7.542593707485919,-13.116989677832581,105.11442431098385,155.6629621895989,-4.515443287121315
789,23789,18.70025967021229,-0.9253543182260044,3.998076636618369,212.49953664893374,433.7191979729573,-77.5513584488499
790,23790,20.293377374662438,3.2349638724013348,9.68473670622648,246.06394998700452,545.7027793096553,-2.991918756851666
791,23791,9.432563640764203,10.39709307651706,2.4219110588320785,64.4853727698732,666.6688330608356,-124.66977988794122
792,23792,-16.93797926270576,13.41753862737277,15.042373802350925,-74.83195709897655,573.1313224439002,-117.22224043588234
793,23793,-18.93509905109056,3.9657999131026225,20.700320149120156,-135.09483899585427,356.4076787227671,-41.297198605241135
794,23794,-9.998175384889517,-1.77110180215598,18.36656246178027,-129.2984664443813,205.99143768723266,28.134729431002352
795,23795,-3.1548566987374014,-4.600557858499781,15.08791478919893,-81.23551576237729,146.05778786307283,46.40491724113498
796,23796,-6.253264455720417,-6.279197864347994,13.388304968271552,-17.104767096612235,99.6627098898829,-0.16499850347871042
797,23797,-5.039815750685889,-1.144204090039454,10.091638529290869,56.726266417034076,57.05616910746569,-49.9031216729681
798,23798,-2.6323134591648674,-1.683861601540787,9.931082398451291,36.49241453920045,30.336790042516498,-19.786624046332157
799,23799,-1.404365142889584,-1.7571482179584328,10.387839169249952,41.18706606174069,21.32984753482176,-13.412684012991651
800,23800,-1.3298462873710206,0.11742046431496357,9.134812958248395,55.48543540460186,15.87224311424738,-16.413854537127158
801,23801,-0.8127325479126944,-0.06600224566312601,9.673403209913204,33.14892491183939,7.933153231843344,-8.099036677047408
802,23802,-0.29575521198972105,-1.0029622184364584,10.451166138841778,18.952908035852623,2.7553817347269196,-6.033554100667385
803,23803,-0.3758151086091053,-0.9669912530314427,10.297114486395675,27.87060502259956,5.218052351245577,-5.772702754842209
804,23804,-0.41600727045231456,-0.6668271363622211,10.1015152998065,33.576064601735446,6.326408855693763,-4.373936140304499
805,23805,-0.10016708786874161,-0.29161606787592376,9.941819727510332,32.28457205836703,5.411387264381142,-3.4098646123056167
806,23806,-0.14015894123579548,-0.14173504154548167,9.824864256525606,28.071810400053995,4.801076286218966,-3.213530799855188
807,23807,-0.4175697976735558,-0.029450134360747844,9.671000820513564,23.132423315384962,2.43018394902916,-1.1675010262736016
808,23808,0.2949637098999956,0.1968462199934657,9.780509141676587,16.494539756081156,-2.270455406871953,3.9905383110279598
809,23809,0.05695975763602367,0.38414428358059083,9.58712412805299,10.9993970949905,3.5668728298807384,1.2458477304769764
810,23810,0.21520427599484437,0.007392549890311705,9.744423062637154,-1.222817806404526,4.5128594974098455,2.4137107260341284
811,23811,0.29784851527832085,-0.3627369729619373,10.364259139115383,-9.240179644608963,11.225658329409798,1.479783028631591
812,23812,0.10172766749655136,-0.24646522110851155,10.51808806500161,-9.678030688274227,19.747470062537193,-2.249519668469636
813,23813,0.34719646998304005,-0.04320288113927663,11.593185094923355,-1.2332640359739835,27.484898227242166,-2.460260081453515
814,23814,1.5725447802353838,-0.3111933352520986,17.136492649704863,16.754175917304973,36.68702990399337,-1.523635637181869
815,23815,-2.0481383318290405,-3.1704090901486337,9.289193984033632,65.1150444689471,58.62818842892265,-3.023334449070124
816,23816,0.035823893061107434,-0.5607402483343121,12.409196510668217,-10.539749138647544,55.70593620131862,19.854662405514983
817,23817,-0.33150373252409104,-0.5061917680507163,10.79270164837572,25.180395513954377,65.8709862708744,13.923583426030469
818,23818,-0.6942955506799732,-0.2172009550782372,9.712936290900032,16.97172564934461,65.12045584991202,15.588381706242554
819,23819,-0.8531090419968584,0.15848987306136975,9.478614405936636,14.855503375793457,63.81111829492693,14.250139215910076
820,23820,-1.0896586093952672,-0.10346997604183575,9.636694964695225,15.036915340151362,62.545769299907754,11.703339837570711
821,23821,-1.128496540610991,-0.1774222268935549,9.753239492686015,16.290580536141423,61.61856970059134,11.487570575730441
822,23822,-1.0852069799688278,-0.01984118646706825,10.213556709926866,16.760424436478367,61.80796726798104,10.111644257779549
823,23823,-0.9653475503409445,-0.16838763200549892,10.445647166861782,16.53412111132669,63.67786560911644,10.06563835983846
824,23824,-1.1618610269574243,0.13547275638373335,10.481915710647637,16.727977364754278,67.68141476696456,11.182906160360854
825,23825,-1.0781427466986218,0.6712853977668513,10.937981295016126,13.568384114101757,71.2447282366915,12.030456723318999
826,23826,-0.9913393525853383,0.49723175585578644,12.056440592427855,10.6226658278229,75.4813234651344,10.799700144646643
827,23827,-1.024263281391459,-0.05532716225324865,13.141039487141,7.795229056777316,83.96283501929169,9.862707888960449
828,23828,-1.0105520135747046,-0.820708238029385,15.267679640002285,8.58256036623217,96.73717466860491,10.678805419381993
829,23829,-0.8029116118055624,-1.5557911447475203,16.892266825045578,14.104083640804372,113.58336157208187,13.635616562932778
830,23830,-1.032248862990085,-1.879631219636713,18.052456121346808,23.498319416009835,137.6794086679528,18.650149411209327
831,23831,-1.1096721914129017,-1.575095091997804,18.1651484560839,29.925017284882927,163.67680647815524,22.730109039593497
832,23832,-0.3859755093894132,-0.9513424480078612,19.657017971010085,33.117951217711806,190.03317831295354,25.8620178175144
833,23833,-0.011447852534802275,-2.2353825944673353,22.673297253236797,32.19666747283212,225.42368524167927,26.845792131286302
834,23834,0.4844575237540581,-5.021047452289594,26.59094895764881,32.89702501637645,272.84109578405884,38.264579509457135
835,23835,0.3474204703687644,-8.145182080591141,30.515442900766896,35.631348197535296,333.56758985264736,55.23192042422742
836,23836,0.7240593543406074,-11.120172219749554,34.39720824594881,30.501218506935096,401.78950522722454,83.03737008972809
837,23837,1.7571968160467324,-12.167004715657594,35.558705143171125,23.17174403864787,479.3214963298457,114.48894142517322
838,23838,2.0298485106387183,-10.105178202988048,39.69527100555964,-17.659362867485658,551.4454948047683,145.47473960843251
839,23839,-0.3989890355208771,-8.440784103283715,47.316512597533325,-55.187240096718256,610.2595436496734,182.370209973541
840,23840,0.8952212715522841,-5.377387077417749,55.71272942807837,26.287521505138997,599.6060731161374,196.85783199101405
841,23841,7.869137980477109,-7.318434476561433,53.77206482766063,80.49509248033029,564.5911415717742,202.72149942071172
842,23842,21.27124250942517,-16.6040215168642,36.623878529390325,88.52739616837593,494.05778455910377,225.23097027012517
843,23843,19.204470483320875,-16.23155301555072,-8.166714418486993,153.63335056826784,295.1837696371314,249.6784099557032
844,23844,24.72125797086623,-6.7892465829067605,2.75904028570366,2.929331826402845,0.44206500714136293,311.6984807060103
845,23845,28.949203852482974,-4.657910377992968,12.845112541358715,62.47280276829586,-98.87902520894251,231.42270873356088
846,23846,30.601974616947455,-0.30796466533897443,15.83313876023718,193.26744538062502,-137.7129066789256,110.71927502917961
847,23847,25.990466025791093,-1.5502840646323428,7.010622983887832,151.01621297200063,-161.6124338744649,9.19865921209273
848,23848,23.073925300169705,-5.477895359560383,-6.799214038587433,12.240542817511665,-212.48802410032096,-72.5583207477191
849,23849,21.001627020919884,-8.065815637585924,-8.340246082447742,-123.97488411193793,-258.93578355360046,-134.25862028216017
850,23850,19.231390685958058,-8.725391856393443,-1.6989814124782694,-178.76042899760478,-290.24257447206975,-178.9438674174775
851,23851,16.310044413950497,-9.391323403689393,4.216357103359164,-182.9798013607261,-313.0513770192944,-198.29466991168215
852,23852,12.45424768311615,-10.177714757069353,6.671066790358386,-188.11856106823765,-332.4453978354896,-185.31011998802236
853,23853,8.555590269771628,-10.480596979446974,8.504525107151133,-197.81235399767826,-354.16854310142196,-143.4645967129477
854,23854,5.091630926257784,-9.805399127182827,10.017159730560392,-207.5116861644844,-375.7550422874476,-80.4026829369057
855,23855,2.3463759235625963,-7.649481973947794,12.04955758911045,-218.0880381601158,-392.62009515317567,-6.783692058364425
856,23856,1.3387144350877749,-4.74726802199146,13.718460673217212,-221.49305290124272,-398.61070321203556,66.08908499240005
857,23857,2.7728456825120564,-1.0386575905584734,14.056676763959647,-230.19057134697155,-397.38411663144876,125.45651862874327
858,23858,5.079169400146272,2.635127269556881,14.814530437288829,-242.565693514342,-391.20786322894634,163.68449132705067
859,23859,6.432515101395677,4.570476601800831,15.518793235752732,-251.71814090966524,-382.5916219843421,177.53746209456472
860,23860,8.66696881665237,7.8058693822665735,17.3987414248751,-252.97204979721604,-375.290512595374,172.4267968346919
861,23861,10.10544724243814,10.392661163912075,18.71190013454705,-253.30861116775776,-373.14319163028404,155.94084572082514
862,23862,10.586095405460348,11.457954808788962,19.237318792913186,-258.81055377065616,-377.2035446149866,135.60308379078114
863,23863,10.476629868848184,12.153179728751228,20.23192286375777,-270.4165770650493,-381.41825847325134,116.57047485119257
864,23864,9.981842478289733,13.131515018000776,22.45805499961929,-282.5244370377567,-384.6577542168663,98.1725131663504
865,23865,8.746646514915787,14.357341082018902,25.994940820467292,-286.19629416129476,-390.8818438294093,80.85217131803911
866,23866,6.140335500296451,16.061319493237768,30.958879120982157,-274.56099222374456,-402.0211445012476,68.82684852642396
867,23867,2.314282039878894,17.13826638753614,36.8216609171547,-239.9834284436472,-417.7530623447923,64.48970585093667
868,23868,-3.6149014634671564,17.677461223162947,41.62237923620092,-189.11157701506974,-432.6624254206279,74.21249989718467
869,23869,-10.95368617944011,17.078817209532602,43.16836290533918,-137.28328572345936,-437.0643577923836,94.5124545588354
870,23870,-19.105214910911698,15.574320395053675,41.95483415705671,-92.92011212026105,-418.4438778778006,116.30722990492767
871,23871,-25.89869039928443,15.902493286488337,36.74737370560189,-75.65789124407321,-370.9799823471032,129.37075702188957
872,23872,-30.06002560602367,19.433523820130425,28.410767559410292,-94.84020738087945,-304.2626052685816,119.54066227033186
873,23873,-31.494964864397886,21.787334320604387,25.88918453292412,-105.48864894621401,-230.90602340417695,85.30848604239186
874,23874,-34.384917489690366,25.28840151348289,23.901996052848837,-65.79121703291516,-155.23856613306833,49.0738575888767
875,23875,-40.09952539916753,26.42676018654031,20.067047255935833,-15.72104199905986,-98.05972006794717,33.2234072876903
876,23876,-46.554683187358556,23.104327873834386,19.133960064881876,31.52977205567198,-36.51566825777007,51.63446315947503
877,23877,-49.72250562500889,17.11246691074729,20.21566142226082,83.15561429766547,37.79167544585314,98.46979539920753
878,23878,-46.7369676924629,10.705773274249387,20.07640267156862,117.10323557898158,100.85593955934993,156.3483793664985
879,23879,-38.857767439588564,4.235775281715253,19.219577302412244,137.8715680601385,151.67940755674084,203.29041808712952
880,23880,-25.687413393245855,1.0201478995361326,16.83730177795134,119.34725309540057,198.7182996252891,213.21361654591448
881,23881,9.898731935786168,-11.458272760530306,-12.677082156379226,319.6979669331643,238.64377413244614,161.8190363239489
882,23882,29.104952561081305,-20.707600634493897,18.023416933256716,494.7730342887309,274.47929067698607,25.609643134688774
883,23883,23.08773613690495,-13.176363973767819,8.459391608757551,564.7109840678296,456.2627356916894,-88.82602917525966
884,23884,3.357523690306502,8.550526731232807,4.321478283886228,329.21243992383637,421.6053354179783,-215.54731535061427
885,23885,-6.607268890694198,11.16182928570464,13.010951598211017,233.09291670225085,286.67135279124375,-142.53236632278382
886,23886,-11.2885998491753,7.939170683770826,11.48998931397389,164.9313459800167,205.69548013606885,-82.54857216601356
887,23887,-13.311405176531302,8.985499729426476,10.063905085657604,167.749048645012,124.97791598128781,-110.2151720487511
888,23888,-8.197264020920297,12.46863464615783,5.8791256823627425,31.480679988419503,13.627094995042256,-65.24550435877082
889,23889,0.4999245171299869,3.825807913628638,9.548054801276725,21.172833352904956,32.16125076814727,-73.18018662446062
890,23890,-1.6451291764048563,1.2498143741944878,8.85467465120665,-14.081175998866186,21.306343044075867,-65.2072798437148
891,23891,-1.5641322478816437,-1.3079072029754444,9.998661000915485,-2.860343572788416,20.74029077055827,-48.65273088233818
892,23892,-2.2380484057777013,-2.3646021123872973,10.051913069440264,22.904869653361978,17.723810452255123,-29.254756931858594
893,23893,-2.595338517884618,-0.747107713179425,9.266057817760895,13.082627858810412,10.64793893406,-16.34365777980151
894,23894,-1.3655911166146635,-0.7793756139726908,9.953478248390953,22.87629458995953,10.581602586124124,-6.417035667506655
895,23895,-0.853485694596368,0.12012342131367068,9.440508122053323,7.3020861140082225,9.467573820083675,-2.9465606269165248
896,23896,-1.1305641358494938,-0.44492648357677617,9.563518455882056,0.9739039883463798,8.582030257629961,1.5029860495878933
897,23897,-1.2118461563878846,-0.5618908723872208,9.295553143092317,-5.035665082593852,5.532639071127205,9.227252768305863
898,23898,-1.2921426107806988,-1.2043156246080584,9.341352310107757,-11.255583040746435,3.124026056681603,16.886512768605158
899,23899,-1.333064113470126,-1.3198170438594934,9.188721703077533,-18.599516613482916,1.8303827249189382,24.941239262941814
900,23900,-0.8169881656898518,-1.580503110108317,9.6125879117861,-33.0288770199147,2.1061564320220048,32.19335540600898
901,23901,-0.8101844545458771,-1.2288396110749922,10.41768216901132,-36.87396218954844,10.343459359018295,37.75194460849755
902,23902,-0.24201431755999323,3.503948030405761,16.218991509636407,-6.155729351096538,31.91881768477553,54.955189390479106
903,23903,-0.507066887878901,-4.681429872101388,9.836773216376379,-3.241097084248204,42.95609697761893,73.3329479438217
904,23904,-2.9533683810999376,-10.128923358570617,12.141574144966798,-40.52646974088048,52.16131148355328,99.27831947053738
905,23905,-1.0691475765277658,-15.807303148588971,12.423835141201963,-70.36477694056626,59.983048570093366,176.27994024377577
906,23906,-1.1363699378295664,-17.592938513534243,14.638837849331333,-100.51102432250589,70.58207217992862,240.92943603657014
907,23907,-0.9524500561757857,-18.18392991129413,12.987923686725697,-90.40800865062877,90.69928610659979,289.749693697525
908,23908,0.8037634945994331,-16.536638875238985,14.848775073235188,-108.57981631643456,99.34927992925489,349.19433740461363
909,23909,1.4234032615267442,-15.846331753802872,12.91230716198526,-115.99273412256785,111.72041072646586,388.8712248241822
910,23910,2.4879586471770962,-13.819915625387631,11.922247516852462,-120.96920199040797,115.81307425286221,428.3908631119165
911,23911,3.918375594138756,-9.89224599175051,11.680360331912826,-128.09175584458032,116.24996805958772,446.4424682745345
912,23912,3.84174242574838,-6.008142639446529,10.676238187241848,-126.21590774430024,115.37249627996124,447.8948376079145
913,23913,3.9167823255194056,-3.454647786771945,9.261872631968364,-129.36741103141924,109.56453228251728,440.8245717866917
914,23914,3.5696618335992487,-0.8012591903761979,9.504887045138457,-122.89172913380037,99.821534483656,428.43734863504085
915,23915,3.7660874409221248,0.1376334067938506,9.031620961158808,-120.63690115465357,92.69039217017976,406.23139422921605
916,23916,2.8625581390162593,1.3177459387807566,9.331745387795015,-121.09162675649848,83.2101285304613,387.6643448755713
917,23917,2.9064768862665624,1.9661340602972892,9.709772167674693,-116.43237501010924,76.23059542305576,367.96169233541025
918,23918,3.2333481365915935,3.2658531401557176,10.734207734905361,-113.04011869332716,70.27310000996667,349.29595325109034
919,23919,2.755420719768827,2.61993820062684,10.435400823307587,-101.545178822402,64.90278932047565,326.8674671818907
920,23920,2.611785166078733,2.948601480689871,12.281508981196094,-90.63958614499334,64.38970037632282,316.90996365553764
921,23921,1.4117438675157923,2.096190791417715,10.563398400682027,-81.71227374381307,65.18301584605018,297.0647238822539
922,23922,0.6949909914623582,1.1840723805829432,10.114580246325914,-84.22013529080117,62.18180781501438,280.31222702014514
923,23923,0.5017229965885124,1.192671116047977,10.69325097321683,-81.71245032304394,60.62119529425397,267.39695828971963
924,23924,-0.04797795966442635,1.4267890803734946,11.07873065460585,-83.13470315027024,62.142841289402355,254.24490273254017
925,23925,1.318430155267666,3.725471872708163,13.43534016446654,-78.37907222313991,63.79182333057293,240.39610385625997
926,23926,1.4347719016183562,5.039268067708486,12.688841280715211,-59.222991122771255,70.55183782593727,213.12596193770017
927,23927,0.7995818412916176,5.638211027132891,12.06937013372983,-65.51067201545825,78.74853850724666,195.72395653148794
928,23928,1.2897704378924488,7.248591788107606,13.705948894306607,-70.2521648697187,84.32885520402735,176.71913719844898
929,23929,1.8476336327437206,8.272609939826117,14.00030445322268,-56.28153298904972,93.30817425231939,147.31397356827338
930,23930,1.3386618588216546,8.659534869600096,14.499498075146002,-46.80029379803942,103.52285307985933,120.19071987856815
931,23931,1.024480666406673,8.965371782616332,14.651900203928712,-36.594904300692235,117.81972286502233,95.88387841475168
932,23932,1.2241437673545825,9.721980271003934,14.681309253945596,-34.807173409318885,131.3466621172757,69.01257270813065
933,23933,1.1849893971894248,10.099407743943893,14.600434110312664,-33.19439242303158,147.53468623864208,39.560702582396246
934,23934,0.7191867566093704,9.664421363065609,15.878571724957656,-32.40046011273145,167.65067663041813,13.24516723807298
935,23935,-0.7081364828440632,7.588063415197591,15.908047159940347,-36.74345583073351,194.34733589487672,-7.667043964670064
936,23936,-1.7854378432276679,4.746934102899957,15.443179765300084,-51.37177950364967,224.73480042939386,-18.900886152171804
937,23937,-3.0407567622637774,3.524733593920047,17.080424070270666,-75.23106643663215,257.1070821926128,-22.428571072828667
938,23938,-5.160386708099793,2.2013977908530644,19.416484338378602,-84.42436481796412,289.1221329263663,-22.92057999569118
939,23939,-6.98820665337172,-3.612544281529533,19.988720088243667,-95.65276129834741,321.745406215336,-21.84727499323671
940,23940,-9.84485867704202,-3.7043421988511667,29.133150121911317,-136.9277040443789,358.50897177222356,-1.269921380175846
941,23941,-11.443556131892135,-4.224712474738121,32.18982304366826,-96.11958621465587,396.65944212990416,10.723233254740467
942,23942,-9.6121238570041,-6.577154599005391,34.901966248009174,-95.85643515375945,423.84984026883683,32.382314855649724
943,23943,-9.22084806006021,-7.903759356258751,34.83712779525722,-95.06557820590997,457.5536680193747,50.261347069586755
944,23944,-7.565918745309041,-8.596784414359256,39.84353488385076,-108.56953271198205,470.69104724288894,82.10218278855527
945,23945,-3.2729766110514222,-10.594164319785046,38.68749111687266,-99.78007912600725,491.8258108835367,104.98877521000657
946,23946,1.217683310681484,-16.355190230659353,28.095124779988634,-136.89699632211187,489.67881918835667,161.45053873628027
947,23947,-7.0753304148869365,-27.348145159421016,0.13634948974379543,-244.37613318417652,398.1526599673572,287.34085047320997
948,23948,4.520487196187471,-14.65518861992802,-1.5221539418206016,-332.1094286115223,117.10665741436466,466.8011410452086
949,23949,20.175215977595208,-2.603457931102461,17.104842381770194,-306.2154772177487,-114.92925502476223,403.2122288572807
950,23950,22.089564655443983,6.761598562010232,27.086795091482408,-153.11273245801726,-220.3318655407364,298.3972879281802
951,23951,20.048134681829904,6.381161869226311,18.241978127481396,-5.39147088345086,-239.9043618508654,161.46771859487657
952,23952,18.09354282767773,2.0618567995117933,6.434401643811519,-22.844812987492205,-264.72446856957595,60.76490207117202
953,23953,16.4769175094092,-1.6918590155321045,2.7849975659993897,-111.66038428337366,-303.0879181340593,-12.797994962721313
954,23954,15.471298440747793,-3.5315192008773706,6.3535055638019555,-207.08111022031872,-332.20412102519913,-57.01197879553727
955,23955,13.801844965083477,-4.149227112887335,10.567137754784973,-247.71582322235813,-354.8591848440489,-77.25017680423615
956,23956,12.565182331899496,-3.6417545765687693,14.150233685642357,-250.0498208632234,-385.4293314044369,-69.02600397334653
957,23957,12.13939181774857,-3.1719880875293556,15.187378137989038,-228.40361828682433,-416.8017456883186,-39.12536695120917
958,23958,11.155678500632444,-1.5418304125427862,15.174947907051342,-211.05558854749634,-441.7321019513436,4.117455565027483
959,23959,10.847051239798901,0.6952338063899697,15.422219704781439,-211.43462871145462,-459.6193261334808,49.76890808290595
960,23960,10.942534225472256,3.851808979597518,16.582045117617717,-208.09127311731194,-465.9979638983982,85.93247398621959
961,23961,11.032635932396794,6.659372917648422,17.129333649176857,-198.5489093199802,-462.4217716808577,110.46934448470911
962,23962,11.158401981852826,8.81935286219947,17.37521891161689,-189.16256898056065,-453.44226522257486,125.58076480713981
963,23963,10.964176682013077,10.295068313181282,17.321903574528115,-185.55821665182128,-442.5498562714481,133.69486785383188
964,23964,10.968255955666882,11.620919635539996,17.423256304376356,-184.31127190232735,-432.6551636533743,134.44259865571166
965,23965,10.93427456765678,12.610618978117126,17.836547277307588,-186.29100694290375,-424.5381757816861,129.69615069195996
966,23966,10.46594779806271,12.99953733022545,18.48958708018004,-184.63833428088876,-420.37725281113535,123.21874797521845
967,23967,9.328076618823015,13.54516500391422,19.375470205723655,-180.5222155824678,-416.6883103962006,116.38849967577768
968,23968,7.481714956366301,14.361668837642853,20.531692275018475,-176.82566238831294,-412.30032328243783,109.82945614998808
969,23969,4.966117335095798,14.996479813302008,22.078450289499642,-170.45907473552506,-410.3194448454373,102.02068522089672
970,23970,1.1903006197048325,15.303892935934561,24.289941137859703,-161.0541047161157,-403.4730262268778,96.20838679966299
