,left_sensor,right_sensor,left_sensor,right_sensor,left_sensor,right_sensor,left_sensor,right_sensor,left_sensor,right_sensor,left_sensor,right_sensor
,acc_x,acc_x,acc_y,acc_y,acc_z,acc_z,gyr_x,gyr_x,gyr_y,gyr_y,gyr_z,gyr_z
0,-6.314179038,-6.493950687,-0.389275541,0.416574855,7.15656948,7.128924868,-0.009857543,0.064960814,0.038600405,0.056928183,0.130497977,-0.058159959
1,-6.290303731,-6.474887059,-0.396200153,0.397758773,7.170967678,7.161575351,-0.01100767,0.067007844,-0.080375578,0.056361111,0.06877527,0.063849295
2,-6.290419309,-6.477220068,-0.381799184,0.40242443,7.163794554,7.145269456,-0.01100767,0.065974841,-0.080375578,0.116316736,0.06877527,0.065446149
3,-6.278568524,-6.479501089,-0.384074498,0.390376042,7.180390889,7.133583679,0.05006644,0.189342705,-0.079997815,0.115982985,0.069056738,0.003336963
4,-6.304511738,-6.496396816,-0.405965398,0.395227115,7.16855725,7.159148769,-0.009857543,0.064951325,0.038600405,0.116600272,0.130497977,0.004441521
5,-6.309425349,-6.470086464,-0.391625455,0.409656888,7.16369015,7.147646205,-0.135239426,0.003788639,0.038785355,0.05695329,0.007841782,0.003396947
6,-6.314190674,-6.472388114,-0.403698068,0.40476953,7.180204951,7.133647584,-0.137089609,0.003788639,0.098978704,0.05695329,-0.052866808,0.003396947
7,-6.314322247,-6.472438482,-0.394106662,0.392943902,7.18247816,7.154585714,-0.0760155,0.060819311,0.099356467,0.356422771,-0.052585341,0.010828935
8,-6.302046935,-6.465242989,-0.410730589,0.378693268,7.166267633,7.163900995,-0.076248852,0.184168199,0.159079578,0.475433198,-0.052247302,0.073922711
9,-6.323586833,-6.474732715,-0.403786243,0.37615631,7.158947597,7.149877457,-0.011707727,0.185191714,0.098793754,0.475149662,0.069789386,0.134927338
10,-6.304718183,-6.498489615,-0.391579828,0.392448236,7.173142945,7.100894207,0.050299792,0.185191714,-0.139720926,0.475149662,0.068718699,0.134927338
11,-6.295292215,-6.498759527,-0.377066046,0.414199912,7.168413065,7.135887633,-0.070231596,0.190356732,-0.140946691,0.175371537,0.129202393,0.126943071
12,-6.297524402,-6.506205959,-0.384278565,0.438287067,7.159042055,7.168526589,-0.070231596,0.003779151,-0.140946691,0.116625379,0.129202393,0.065998428
13,-6.295164282,-6.489462955,-0.398675199,0.426498783,7.18505216,7.180217641,-0.010774318,-0.057374047,-0.140098689,-0.002693691,0.068437231,0.002352373
14,-6.290409133,-6.482015695,-0.384200885,0.404788691,7.166165956,7.145254702,-0.072315132,-0.180722935,-0.021030231,-0.121704118,0.068831841,-0.060741404
15,-6.316530442,-6.47965626,-0.394104837,0.409601442,7.158937651,7.147605557,-0.074165316,-0.180713447,0.039163118,-0.181376207,0.00812325,-0.123342884
16,-6.307235327,-6.486827019,-0.39163036,0.395282561,7.189582423,7.159189417,-0.073931964,-0.178656928,-0.020559993,-0.241615368,0.007785211,-0.06393511
17,-6.302633562,-6.469979175,-0.379585465,0.385737048,7.194233497,7.147590507,-0.073931964,-0.116461238,-0.020559993,-0.241924011,0.007785211,-0.064487389
18,-6.295138111,-6.462824114,-0.396267338,0.388185537,7.17797723,7.149956117,-0.014241333,-0.121616767,-0.079435102,-0.001817975,-0.053317989,-0.119104603
19,-6.292895748,-6.494138909,-0.391456521,0.407305346,7.189719642,7.175493652,-0.010774318,-0.121626256,-0.140098689,0.057854113,0.068437231,-0.056503122
20,-6.292626785,-6.479606756,-0.40342807,0.385756209,7.173355488,7.159197625,-0.010774318,-0.058416539,-0.140098689,0.116934023,0.068437231,0.066550707
21,-6.314283721,-6.503561778,-0.398906985,0.397547672,7.184869201,7.154464746,0.050299792,0.06287583,-0.139720926,0.29618361,0.068718699,0.070236709
22,-6.305094726,-6.49406874,-0.362802528,0.40959288,7.177610809,7.15919235,-0.009157486,0.06287583,-0.140568928,0.29618361,0.129483861,0.070236709
23,-6.299906335,-6.486723835,-0.381902757,0.392771206,7.154296019,7.140547422,-0.011241022,0.060819311,-0.020652467,0.356422771,0.069113309,0.010828935
24,-6.287842567,-6.496351416,-0.412983089,0.392790367,7.187590366,7.152154539,-0.07208178,0.063908834,-0.080753342,0.236227985,0.068493802,0.068639855
25,-6.285545683,-6.491497177,-0.408163033,0.392728562,7.192277486,7.138197545,-0.009390838,0.001722632,-0.080845817,0.17686454,0.1298219,0.006590654
26,-6.297631263,-6.494010127,-0.389103526,0.411895336,7.180247208,7.1452206,0.049833088,-0.060463569,-0.020274704,0.117501095,0.069394776,-0.055458548
27,-6.280551382,-6.484364401,-0.420085875,0.397583957,7.183014364,7.142898277,-0.009624191,-0.184864437,-0.021122706,0.177790471,0.130159938,0.008247491
28,-6.292977158,-6.465231396,-0.37224291,0.411972145,7.170748421,7.131365227,0.11114055,-0.060473058,-0.079620052,0.177173184,0.069338205,0.007142933
29,-6.316578425,-6.465190965,-0.408533524,0.395273021,7.18727665,7.138314898,-0.071848428,0.000699117,-0.140476453,0.177148076,0.068155763,-0.054413974
30,-6.300061898,-6.462832358,-0.379525694,0.397708709,7.170738727,7.142989736,0.111607254,0.00173212,-0.199066274,0.117192451,0.068662128,-0.056010827
31,-6.292632603,-6.479704972,-0.410639334,0.40252994,7.185173224,7.16389572,-0.008924134,0.000699117,-0.200292038,0.177148076,0.129145822,-0.054413974
32,-6.292851404,-6.503503994,-0.38904558,0.397473065,7.180292947,7.14281698,0.113224086,-0.000333887,-0.199536512,0.237103701,0.129708757,-0.05281712
33,-6.304635313,-6.481971124,-0.39396921,0.399974881,7.166107292,7.140584456,0.050533144,-0.061496573,-0.199444037,0.17745672,0.06838066,-0.053861695
34,-6.297698139,-6.48205699,-0.381904582,0.385816954,7.177836528,7.170835228,0.111373902,0.000689629,-0.139343163,0.236820165,0.069000167,0.008187507
35,-6.299772584,-6.510717668,-0.396300646,0.39272212,7.159117379,7.15442312,-0.009157486,0.003788639,-0.140568928,0.05695329,0.129483861,0.003396947
36,-6.290151806,-6.501280758,-0.410594962,0.40959606,7.173437274,7.166150523,0.050533144,0.003798127,-0.199444037,-0.002718799,0.06838066,-0.059204534
37,-6.309621618,-6.486969806,-0.379641587,0.416870102,7.170647248,7.168557758,0.053766808,-0.060444593,-0.200384513,-0.001843083,0.190473919,-0.180661509
38,-6.287931975,-6.477232453,-0.396174259,0.400062289,7.173342311,7.149922993,0.050533144,0.003798127,-0.199444037,-0.002718799,0.06838066,-0.059204534
39,-6.264336525,-6.482127951,-0.367094909,0.414446155,7.168631818,7.1592543,0.172914716,0.065993817,-0.258411621,-0.003027442,0.068605557,-0.059756813
40,-6.26641025,-6.477335636,-0.403121685,0.402573644,7.183014112,7.168564988,-0.010774318,-0.119569737,-0.140098689,-0.002385048,0.068437231,0.002904651
41,-6.290612679,-6.460523291,-0.396252509,0.390695832,7.210947664,7.166278721,0.051683272,-0.058407051,-0.080468053,0.057261934,0.130103367,0.003949226
42,-6.302294086,-6.479651328,-0.386738213,0.390570019,7.161367718,7.163867871,0.049833088,0.00173212,-0.020274704,0.117192451,0.069394776,-0.056010827
43,-6.295160643,-6.49394741,-0.386657453,0.392789307,7.166139855,7.149835148,-0.013091206,0.125099985,0.039540882,0.1168587,0.008404718,-0.118120012
44,-6.297473521,-6.494058011,-0.396287072,0.407200896,7.170899068,7.15918678,0.051683272,0.062904295,-0.080468053,0.117167344,0.130103367,-0.117567733
45,-6.304681836,-6.496291976,-0.391573669,0.397469886,7.168439417,7.135858807,-0.07208178,0.005835669,-0.080753342,0.056386218,0.068493802,0.125406202
46,-6.312102415,-6.493833498,-0.379685959,0.387885968,7.182383198,7.131187583,0.109990423,0.006878161,-0.198596036,-0.063241496,0.007615498,0.061207867
47,-6.309526393,-6.484328074,-0.389239153,0.402293318,7.173077567,7.131261651,0.048682961,0.005864134,-0.139250688,-0.122630049,0.007672069,-0.06239824
48,-6.283160112,-6.486789036,-0.398521094,0.404746047,7.178111218,7.142904824,-0.071148371,0.00688765,-0.319645785,-0.122913585,0.067141647,-0.001393613
49,-6.278649215,-6.486879835,-0.386491598,0.409619543,7.194521111,7.156893283,-0.071615075,0.004821643,-0.200199564,-0.003002335,0.067817725,0.001800094
50,-6.302781129,-6.465335408,-0.374803621,0.412106437,7.205953039,7.152331206,-0.012157797,0.005854646,-0.199351562,-0.06295796,0.007052563,0.00020324
51,-6.307188804,-6.470133519,-0.394025902,0.407339511,7.187250297,7.159288401,-0.012624501,0.003807616,-0.07990534,-0.062390888,0.00772864,-0.121806014
52,-6.29736448,-6.477327392,-0.396268593,0.393050472,7.156788485,7.175531369,-0.133855946,0.06392781,0.098038228,0.116883808,0.069226451,-0.056563106
53,-6.314282261,-6.479752855,-0.382082756,0.397835499,7.158862328,7.177861899,-0.136856257,0.126114012,0.039255593,0.176247253,-0.053204847,0.005486096
54,-6.300016835,-6.484572389,-0.398745465,0.43114634,7.194413476,7.15462402,-0.075315443,0.125081008,-0.079812865,0.236202878,-0.053599457,0.007082949
55,-6.292913921,-6.501307148,-0.391459601,0.433411451,7.192071406,7.149899349,-0.134772721,0.003779151,-0.080660867,0.116625379,0.007165705,0.065998428
56,-6.297597096,-6.515534753,-0.384290884,0.399870349,7.168449111,7.154419505,-0.197697015,-0.058388074,-0.020845281,-0.062082244,-0.053824354,-0.121253735
57,-6.302069467,-6.496422414,-0.401120703,0.388125769,7.154430259,7.170779825,-0.075548795,-0.057355071,-0.020089755,-0.122037869,-0.053261418,-0.122850589
58,-6.297376116,-6.484537754,-0.410691121,0.397807777,7.180423956,7.177841575,-0.136389553,0.007920653,-0.080190629,-0.18286921,-0.053880925,-0.002990467
59,-6.290295734,-6.470009706,-0.393795371,0.397667125,7.166244511,7.14295925,-0.075315443,0.005864134,-0.079812865,-0.122630049,-0.053599457,-0.06239824
60,-6.290588688,-6.493833498,-0.389038166,0.387885968,7.196778165,7.131187583,-0.072765203,0.011019663,-0.319175547,-0.362736084,0.006095017,-0.007781027
61,-6.268790004,-6.458114317,-0.405552359,0.404957148,7.185362645,7.15001543,-0.071381723,0.012043179,-0.259922675,-0.36301962,0.067479686,0.053223601
62,-6.283204456,-6.451011244,-0.400932035,0.424119683,7.187537912,7.147760921,-0.012157797,-0.113371716,-0.199351562,-0.362118797,0.007052563,-0.006676469
63,-6.28085887,-6.472725711,-0.403314003,0.43136486,7.196987476,7.177970363,-0.012157797,-0.118527245,-0.199351562,-0.122012761,0.007052563,-0.061293683
64,-6.293060028,-6.470059245,-0.369853527,0.38821856,7.177784074,7.161573396,-0.010307613,-0.246008147,-0.259544911,-0.001200688,0.067761153,-0.118000045
65,-6.252141185,-6.467763391,-0.407766648,0.376466478,7.199652956,7.191839901,-0.072998555,-0.119569737,-0.259452436,-0.002385048,0.006433056,0.002904651
66,-6.283410901,-6.482275707,-0.386546465,0.421771321,7.192123608,7.182566541,0.050299792,0.064951325,-0.139720926,0.116600272,0.068718699,0.004441521
67,-6.273709433,-6.465244645,-0.39842368,0.373939143,7.19231328,7.168548961,-0.010774318,-0.121626256,-0.140098689,0.057854113,0.068437231,-0.056503122
68,-6.281127832,-6.470059245,-0.391342453,0.38821856,7.21335163,7.161573396,-0.073698611,0.004812154,-0.080283104,0.056669754,0.007447172,0.064401574
69,-6.292725649,-6.491798448,-0.405848251,0.424033253,7.189837474,7.170883697,-0.196080183,0.063918322,-0.021315519,0.176555897,0.007222276,0.006038375
70,-6.29731142,-6.486739532,-0.413083583,0.380900814,7.175740067,7.154496892,-0.135006073,-0.119579225,-0.020937756,0.057287041,0.007503744,0.065506132
71,-6.316457029,-6.479691759,-0.415723229,0.407269144,7.182632039,7.1569182,-0.074165316,-0.056350532,0.039163118,-0.002977227,0.00812325,0.063357
72,-6.28541847,-6.47484166,-0.408141474,0.395322025,7.175815139,7.154581122,-0.135239426,-0.118536733,0.038785355,-0.062340673,0.007841782,0.001307798
73,-6.280715662,-6.467887997,-0.398482882,0.4170556,7.171078796,7.180286822,-0.135006073,0.005864134,-0.020937756,-0.122630049,0.007503744,-0.06239824
74,-6.297481518,-6.474764902,-0.398691853,0.383332262,7.175622235,7.149894166,-0.073931964,-0.056322067,-0.020559993,-0.181993494,0.007785211,-0.124447442
75,-6.285468631,-6.453255973,-0.417763679,0.383486858,7.197059569,7.154644732,-0.073698611,0.001741609,-0.080283104,0.057520362,0.007447172,-0.118612308
76,-6.283210274,-6.45324276,-0.408143299,0.388226062,7.199355648,7.147667212,-0.07208178,0.003788639,-0.080753342,0.05695329,0.068493802,0.003396947
77,-6.292899386,-6.477228348,-0.403474267,0.378653803,7.208631946,7.16850929,-0.012391149,-0.059440054,-0.139628451,0.117217559,0.007390601,0.005546079
78,-6.283491592,-6.484326454,-0.388963565,0.373753644,7.20625383,7.156819898,-0.073698611,0.064941837,-0.080283104,0.176272361,0.007447172,0.067043002
79,-6.283445068,-6.50356095,-0.391359107,0.399924735,7.203921705,7.152140762,-0.070464948,0.064941837,-0.08122358,0.176272361,0.129540432,0.067043002
80,-6.290641029,-6.484418045,-0.393853888,0.409543877,7.210928025,7.142926126,-0.073698611,0.002755636,-0.080283104,0.116908915,0.007447172,0.0049938
81,-6.285562397,-6.489206255,-0.391341883,0.400007903,7.168622376,7.152201735,-0.009857543,-0.121626256,0.038600405,0.057854113,0.130497977,-0.056503122
82,-6.300160763,-6.491632547,-0.381945874,0.402415868,7.187220714,7.156856249,-0.072315132,-0.057374047,-0.021030231,-0.002693691,0.068831841,0.002352373
83,-6.283527938,-6.479727258,-0.388969725,0.404936845,7.210957358,7.166230843,-0.072315132,-0.057364559,-0.021030231,-0.06236578,0.068831841,-0.060249108
84,-6.276087007,-6.462915741,-0.405660837,0.390681971,7.201756382,7.166268559,-0.073698611,-0.119560249,-0.080283104,-0.062057136,0.007447172,-0.059696829
85,-6.26179831,-6.439128275,-0.393478491,0.395753766,7.190036588,7.189676852,-0.014474685,0.003807616,-0.019711991,-0.062390888,-0.052979951,-0.121806014
86,-6.280891578,-6.436679698,-0.391302416,0.390938896,7.182778699,7.182687215,-0.0760155,-0.121607279,0.099356467,-0.061490064,-0.052585341,-0.181706084
87,-6.287966142,-6.465486475,-0.400986901,0.409923352,7.185140408,7.184939381,-0.135006073,-0.060454081,-0.020937756,0.057829006,0.007503744,-0.118060029
88,-6.275773701,-6.470088983,-0.415221446,0.369231901,7.175965534,7.18482437,-0.132922537,-0.124715778,-0.140854216,0.178048899,0.067874296,-0.114314043
89,-6.285491163,-6.486832815,-0.408153793,0.378643122,7.185222194,7.175457301,-0.073698611,0.057729789,-0.080283104,0.476617557,0.007447172,-0.046981986
90,-6.278390428,-6.47722752,-0.396061446,0.381030866,7.175785555,7.166185307,-0.074165316,0.058762793,0.039163118,0.416661932,0.00812325,-0.048578839
91,-6.273822832,-6.486765958,-0.388829194,0.371422406,7.192234726,7.168451932,-0.013091206,0.124038516,0.039540882,0.355830592,0.008404718,0.071281283
92,-6.287883272,-6.48462524,-0.403376284,0.412189523,7.178104755,7.1825341,0.050983215,0.18726721,0.09870128,0.295566323,0.131117484,0.069132151
93,-6.292924097,-6.458343798,-0.389057899,0.4100097,7.189700003,7.191958527,-0.072548484,-0.000343375,0.03869288,0.29677579,0.06916988,0.00978436
94,-6.293314456,-6.465346965,-0.369896645,0.412121359,7.210708769,7.154660759,-0.072548484,0.062885318,0.03869288,0.236511522,0.06916988,0.007635228
95,-6.285746311,-6.48189271,-0.386566199,0.392739243,7.185045446,7.131249534,-0.076248852,0.062885318,0.159079578,0.236511522,-0.052247302,0.007635228
96,-6.300067716,-6.47246984,-0.386736958,0.402496917,7.182556463,7.15227844,-0.076248852,-0.060463569,0.159079578,0.117501095,-0.052247302,-0.055458548
97,-6.288069365,-6.453494491,-0.393794116,0.428979318,7.187433256,7.161739218,-0.073015189,-0.059430566,0.158139102,0.05754547,0.069845957,-0.057055401
98,-6.283297502,-6.463038726,-0.396140951,0.402731419,7.192202162,7.180273727,-0.071165005,-0.121616767,0.097945753,-0.001817975,0.130554548,-0.119104603
99,-6.290531988,-6.462975181,-0.393835409,0.386002452,7.196817442,7.182564292,-0.072781836,-0.122649771,0.098415991,0.058137649,0.069507919,-0.11750775
100,-6.280701127,-6.479700039,-0.410497548,0.383498517,7.187639337,7.180158034,-0.133622594,-0.06356258,0.038315117,0.29736797,0.068888412,-0.050667988
101,-6.28088722,-6.477209375,-0.400915381,0.366738647,7.196967837,7.175470101,-0.073015189,-0.00136689,0.158139102,0.297059326,0.069845957,-0.051220267
102,-6.309570736,-6.482029736,-0.391650094,0.397672425,7.182504261,7.154556205,-0.011474374,-0.002399893,0.039070643,0.357014951,0.069451347,-0.049623413
103,-6.268961562,-6.472387322,-0.407984859,0.373852794,7.211251686,7.161529815,-0.074398668,0.060819311,0.098886229,0.356422771,0.008461289,0.010828935
104,-6.266579629,-6.472496266,-0.410360667,0.393018509,7.215997723,7.16623348,-0.074865372,0.125081008,0.218332451,0.236202878,0.009137367,0.007082949
105,-6.29788787,-6.472548254,-0.384340161,0.409732554,7.206077333,7.161613362,-0.133855946,-0.061496573,0.098038228,0.17745672,0.069226451,-0.053861695
106,-6.285640909,-6.482209677,-0.398565466,0.412173542,7.189847167,7.177885156,-0.19678024,-0.123692263,0.157853814,0.177765363,0.008236392,-0.053309416
107,-6.285477348,-6.472438482,-0.398537748,0.392943902,7.168681292,7.154585714,-0.137089609,-0.248074154,0.098978704,0.118710562,-0.052866808,-0.114806338
108,-6.285467172,-6.479606756,-0.40093945,0.385756209,7.171052695,7.159197625,-0.19678024,-0.246008147,0.157853814,-0.001200688,0.008236392,-0.118000045
109,-6.295164282,-6.472493782,-0.398675199,0.400149697,7.18505216,7.15926153,-0.196546888,-0.184845461,0.098130703,0.058446293,0.007898353,-0.116955471
110,-6.276145886,-6.46518272,-0.396057112,0.385749849,7.194622536,7.145281278,-0.074165316,-0.123692263,0.039163118,0.177765363,0.00812325,-0.053309416
111,-6.295338018,-6.472411263,-0.396301216,0.371505574,7.203846633,7.168512905,-0.135472778,-0.063572068,0.098508466,0.357040059,0.008179821,0.011933493
112,-6.297424818,-6.482134576,-0.403489097,0.395429654,7.175661512,7.177846167,-0.071165005,-0.003442385,0.097945753,0.476642665,0.130554548,0.014574921
113,-6.304992963,-6.474863117,-0.386819543,0.400105993,7.201324835,7.154592261,-0.010324247,0.057729789,0.158046627,0.476617557,0.131174055,-0.046981986
114,-6.288018483,-6.51560989,-0.405802623,0.383320438,7.199290269,7.184664708,-0.134089298,-0.001385867,0.157761339,0.416403504,0.06956449,0.073982695
115,-6.292836869,-6.496478542,-0.401060247,0.392954501,7.196853488,7.177779625,-0.072781836,0.058753304,0.098415991,0.476334021,0.069507919,0.014022642
116,-6.297732307,-6.474963817,-0.386717224,0.409748536,7.189634625,7.166262307,-0.071398357,-0.002399893,0.157668864,0.357014951,0.130892587,-0.049623413
117,-6.280948277,-6.486933515,-0.386505173,0.388285664,7.182739422,7.187127346,-0.073015189,-0.061515549,0.158139102,0.296800898,0.069845957,0.071341267
118,-6.295376544,-6.470082359,-0.391500893,0.388248402,7.201455591,7.166232503,-0.011941079,0.000699117,0.158516865,0.177148076,0.070127425,-0.054413974
119,-6.297411003,-6.45350936,-0.393873052,0.419485989,7.15912061,7.173364705,-0.013091206,-0.123682774,0.039540882,0.118093274,0.008404718,-0.115910896
120,-6.299780581,-6.467934224,-0.398705428,0.417115285,7.163840545,7.189605034,-0.011241022,-0.185878464,-0.020652467,0.118401918,0.069113309,-0.115358617
121,-6.295040706,-6.470238359,-0.410671387,0.40509674,7.187502118,7.182578364,-0.011474374,-0.124725266,0.039070643,0.237720988,0.069451347,-0.051712562
122,-6.30500096,-6.462974353,-0.389224324,0.388379515,7.206048001,7.180240308,-0.011941079,-0.12575827,0.158516865,0.297676613,0.070127425,-0.050115709
123,-6.292743823,-6.47727292,-0.40585133,0.383467614,7.192189238,7.173179536,-0.073015189,-0.127814788,0.158139102,0.357915774,0.069845957,-0.109523483
124,-6.28088722,-6.47732408,-0.400915381,0.402558722,7.196967837,7.166235435,-0.011241022,-0.12885728,-0.020652467,0.477543488,0.069113309,-0.045325149
125,-6.292952447,-6.479658744,-0.386659278,0.402470254,7.189680364,7.154577507,0.047982904,0.058753304,0.039918645,0.476334021,0.008686186,0.014022642
126,-6.242607636,-6.455726008,-0.410058616,0.393085696,7.206819365,7.161645509,0.051683272,-0.002409382,-0.080468053,0.41668704,0.130103367,0.012978067
127,-6.311972302,-6.486939276,-0.406101594,0.404940025,7.206116863,7.173189016,0.113674156,-0.001376378,0.098608805,0.356731415,0.192445581,0.011381214
128,-6.278861477,-6.482055334,-0.379317292,0.390571079,7.210924542,7.166187262,0.052833399,0.001722632,0.03850793,0.17686454,0.191826075,0.006590654
129,-6.271374023,-6.486906261,-0.398403947,0.400141135,7.199391442,7.170848323,0.050749863,0.000708605,0.15842439,0.117475987,0.131455523,-0.117015454
130,-6.285436643,-6.484538582,-0.408144554,0.395430714,7.178166903,7.180165558,-0.071165005,0.000708605,0.097945753,0.117475987,0.130554548,-0.117015454
131,-6.292913921,-6.470127759,-0.391459601,0.39068515,7.192071406,7.173226732,-0.073015189,-0.122668747,0.158139102,0.177481827,0.069845957,0.007695212
132,-6.285681614,-6.460616574,-0.388958661,0.38843814,7.180361557,7.18723913,-0.073015189,-0.122659259,0.158139102,0.117809738,0.069845957,-0.054906269
133,-6.297687963,-6.462985082,-0.384306283,0.390771499,7.18020793,7.180245878,-0.073015189,0.00173212,0.158139102,0.117192451,0.069845957,-0.056010827
134,-6.299933965,-6.460645449,-0.401134847,0.405122343,7.187377823,7.177959906,-0.010557599,0.059795796,0.217769738,0.356706307,0.131512094,-0.050175692
135,-6.300224739,-6.446279197,-0.401184124,0.40519059,7.225006046,7.175691325,-0.071165005,-0.002399893,0.097945753,0.357014951,0.130554548,-0.049623413
136,-6.293035317,-6.470206172,-0.384269896,0.397920788,7.196716017,7.182561654,-0.069548173,-0.005498904,0.097475515,0.536881826,0.191601178,-0.044832853
137,-6.278347544,-6.460473787,-0.410474735,0.366850599,7.192365734,7.177870789,0.050983215,0.118873499,0.09870128,0.655608716,0.131117484,0.07926555
138,-6.273921696,-6.491467475,-0.391249374,0.378421422,7.208716712,7.145152785,0.049599736,0.182092704,0.039448407,0.655016537,0.069732815,0.139717898
139,-6.278780787,-6.486923579,-0.376900192,0.416810417,7.19679432,7.159239546,0.051449919,0.185191714,-0.020744942,0.475149662,0.130441406,0.134927338
140,-6.278420238,-6.479691759,-0.410487054,0.407269144,7.20177279,7.1569182,0.113674156,0.063908834,0.098608805,0.236227985,0.192445581,0.068639855
141,-6.276285455,-6.484445299,-0.388870486,0.397688406,7.201618911,7.159205149,-0.010557599,-0.060473058,0.217769738,0.177173184,0.131512094,0.007142933
142,-6.278703735,-6.484536098,-0.386500838,0.402561902,7.201576403,7.173193608,-0.01355791,-0.060463569,0.158987103,0.117501095,0.009080795,-0.055458548
143,-6.266513473,-6.491623474,-0.3959289,0.395269759,7.18530696,7.161498646,-0.012174431,-0.12060274,0.218239976,0.057570577,0.070465464,0.004501505
144,-6.273657092,-6.460543093,-0.393607958,0.400233926,7.17816342,7.161641894,-0.012174431,-0.183821945,0.218239976,0.058162757,0.070465464,-0.055950843
145,-6.292841227,-6.446211512,-0.391447282,0.400346937,7.18266435,7.166361973,-0.012174431,-0.121635744,0.218239976,0.117526202,0.070465464,0.006098358
146,-6.29541507,-6.455707863,-0.38670057,0.378793478,7.19906455,7.170930303,-0.134089298,-0.00136689,0.157761339,0.297059326,0.06956449,-0.051220267
147,-6.280954095,-6.465298289,-0.393716436,0.385899063,7.194557157,7.16857681,-0.070931653,0.056696786,0.038222642,0.536573182,0.130216509,-0.045385132
148,-6.271226457,-6.467619741,-0.403185791,0.390549799,7.1876719,7.149941362,-0.011474374,0.057720301,0.039070643,0.536289646,0.069451347,0.015619495
149,-6.300128054,-6.496307673,-0.393957461,0.385599493,7.20142949,7.149808277,-0.011474374,-0.00241887,0.039070643,0.476359129,0.069451347,0.075579548
150,-6.280992621,-6.491533504,-0.388916113,0.3880192,7.192166116,7.149834171,0.051216567,-0.003442385,0.038978169,0.476642665,0.130779445,0.014574921
151,-6.293011326,-6.484458512,-0.377055552,0.392949202,7.182546518,7.166182669,-0.073015189,0.061833338,0.158139102,0.415811324,0.069845957,0.134435043
152,-6.29541725,-6.491790203,-0.381894087,0.41451008,7.191969981,7.177850077,-0.073015189,0.061833338,0.158139102,0.415811324,0.069845957,0.134435043
153,-6.297600734,-6.47496054,-0.396308631,0.385962988,7.187361416,7.187172587,-0.071398357,0.06287583,0.157668864,0.29618361,0.130892587,0.070236709
154,-6.278404963,-6.469934604,-0.38404678,0.380923237,7.159225014,7.142920261,-0.071165005,0.000699117,0.097945753,0.177148076,0.130554548,-0.054413974
155,-6.285657623,-6.470089776,-0.381744317,0.400148637,7.166192057,7.156942139,-0.072781836,-0.12575827,0.098415991,0.297676613,0.069507919,-0.050115709
156,-6.292913921,-6.448595716,-0.391459601,0.390809903,7.192071406,7.173318191,-0.073015189,-0.187953959,0.158139102,0.297985257,0.069845957,-0.04956343
157,-6.285529689,-6.465281764,-0.40335347,0.400146517,7.182831153,7.152303357,-0.132005762,-0.002399893,0.037844879,0.357014951,0.129935042,-0.049623413
158,-6.268963741,-6.486922786,-0.403178376,0.38589368,7.204157117,7.187121777,-0.070931653,-0.005498904,0.038222642,0.536881826,0.130216509,-0.044832853
159,-6.281055139,-6.494068775,-0.391330134,0.376299081,7.203944574,7.189398564,-0.011941079,-0.005508392,0.158516865,0.596553915,0.070127425,0.017768627
160,-6.285942579,-6.498896589,-0.37458233,0.385839295,7.192002544,7.189400519,-0.01355791,0.056687298,0.158987103,0.596245271,0.009080795,0.017216348
161,-6.292608612,-6.493862408,-0.403424991,0.371276372,7.171003724,7.152114573,-0.073248541,0.120939506,0.217862213,0.535697467,0.070183996,0.076071843
162,-6.280674957,-6.493946582,-0.408089687,0.39516637,7.180564406,7.147511165,-0.010557599,0.122996025,0.217769738,0.475458306,0.131512094,0.135479617
163,-6.299960135,-6.477210167,-0.403542708,0.397655384,7.194452754,7.14758787,-0.071631709,0.061833338,0.217391975,0.415811324,0.131230626,0.134435043
164,-6.290578511,-6.474827619,-0.391439867,0.402438292,7.199149567,7.145279618,-0.071631709,0.06287583,0.217391975,0.29618361,0.131230626,0.070236709
165,-6.288348503,-6.472447554,-0.379420866,0.400090012,7.201426007,7.149943317,-0.074865372,-0.059440054,0.218332451,0.117217559,0.009137367,0.005546079
166,-6.292895748,-6.486854237,-0.391456521,0.416720889,7.189719642,7.145262226,-0.013791263,-0.062520088,0.218710214,0.177740256,0.009418834,-0.114866322
167,-6.302443112,-6.477215963,-0.398780598,0.381015945,7.199094134,7.163855754,-0.073015189,-0.062529576,0.158139102,0.237412345,0.069845957,-0.052264841
168,-6.297703957,-6.477136721,-0.389115846,0.37615737,7.189654263,7.152196848,-0.132239115,-0.064576607,0.09756799,0.237979417,0.13027308,-0.174274096
169,-6.283232806,-6.481874564,-0.398533413,0.378447025,7.187518273,7.140534328,-0.071398357,-0.002399893,0.157668864,0.357014951,0.130892587,-0.049623413
170,-6.268913579,-6.472438482,-0.393556172,0.392943902,7.182912687,7.154585714,-0.011707727,0.058772281,0.098793754,0.356989843,0.069789386,-0.11118032
171,-6.285899695,-6.463013956,-0.388995618,0.407455702,7.208582724,7.170966654,-0.134556003,0.0608288,0.277207561,0.296750682,0.070240567,-0.051772546
172,-6.278448587,-6.467755111,-0.408088432,0.400237105,7.201753151,7.168600067,-0.073015189,-0.000343375,0.158139102,0.29677579,0.069845957,0.00978436
173,-6.285452637,-6.474920902,-0.412954116,0.4001806,7.187613236,7.166240027,-0.069548173,-0.000343375,0.097475515,0.29677579,0.191601178,0.00978436
174,-6.297528041,-6.482061094,-0.396296312,0.407225439,7.17795436,7.152248931,-0.070931653,-0.000343375,0.038222642,0.29677579,0.130216509,0.00978436
175,-6.293144357,-6.482130436,-0.384288374,0.407314967,7.210826601,7.16622625,-0.011707727,-0.000333887,0.098793754,0.237103701,0.069789386,-0.05281712
176,-6.283317855,-6.472482225,-0.391337549,0.400134776,7.187459357,7.156931977,-0.072781836,-0.060473058,0.098415991,0.177173184,0.069507919,0.007142933
177,-6.280919928,-6.467754283,-0.388903794,0.402614168,7.182759061,7.166276084,-0.07463202,-0.061506061,0.15860934,0.237128809,0.008799328,0.008739786
178,-6.276034666,-6.462933886,-0.400845115,0.40497419,7.187606522,7.156983765,-0.073248541,0.060819311,0.217862213,0.356422771,0.070183996,0.010828935
179,-6.27124463,-6.498813207,-0.403188871,0.392866033,7.190023664,7.166121696,-0.072781836,-0.0044659,0.098415991,0.476926201,0.069507919,-0.046429707
180,-6.288263454,-6.477240733,-0.38661673,0.376291662,7.201484924,7.173162827,-0.076248852,0.058753304,0.159079578,0.476334021,-0.052247302,0.014022642
181,-6.304697831,-6.479737158,-0.396383231,0.409705892,7.17788575,7.163912429,-0.073248541,0.121972509,0.217862213,0.475741842,0.070183996,0.07447499
182,-6.307059411,-6.503664134,-0.398810826,0.402436089,7.177882519,7.170782758,-0.073248541,0.119906502,0.217862213,0.595653092,0.070183996,0.077668697
183,-6.311984658,-6.515602438,-0.39889341,0.404714002,7.196650891,7.163748857,-0.010090895,0.125081008,0.098323516,0.236202878,0.130836016,0.007082949
184,-6.305080192,-6.496249061,-0.374817195,0.387901949,7.194171349,7.135836527,-0.011707727,0.001722632,0.098793754,0.17686454,0.069789386,0.006590654
185,-6.29511194,-6.474882091,-0.393859477,0.412021149,7.170902299,7.147631451,-0.072548484,-0.061496573,0.03869288,0.17745672,0.06916988,-0.053861695
186,-6.280871225,-6.465417134,-0.396105819,0.409833824,7.187521504,7.170962062,-0.009857543,-0.121626256,0.038600405,0.057854113,0.130497977,-0.056503122
187,-6.285689611,-6.501134659,-0.391363442,0.397516769,7.185084723,7.147486248,-0.011241022,-0.121626256,-0.020652467,0.057854113,0.069113309,-0.056503122
188,-6.285655444,-6.498710851,-0.3865508,0.387977616,7.173286627,7.149803684,0.051683272,-0.000324398,-0.080468053,0.177431612,0.130103367,-0.115418601
189,-6.278695738,-6.481971952,-0.384096057,0.397597818,7.196853236,7.142908439,-0.011241022,0.061871292,-0.020652467,0.177122969,0.069113309,-0.11597088
190,-6.278814954,-6.484606267,-0.381712834,0.400274367,7.208592417,7.189494911,-0.011707727,0.00173212,0.098793754,0.117192451,0.069789386,-0.056010827
191,-6.271303509,-6.496466985,-0.393585145,0.39293958,7.182889817,7.175450071,-0.073481893,0.000699117,0.277585324,0.177148076,0.070522035,-0.054413974
192,-6.293102193,-6.482088348,-0.377070951,0.395369969,7.194305337,7.168527954,-0.073015189,-0.000333887,0.158139102,0.237103701,0.069845957,-0.05281712
193,-6.295330021,-6.47476159,-0.393896435,0.392840513,7.199123466,7.140598233,-0.0760155,0.000689629,0.099356467,0.236820165,-0.052585341,0.008187507
194,-6.30005754,-6.477268779,-0.389138659,0.395352928,7.184927866,7.161559619,-0.135472778,0.065984329,0.098508466,0.056644647,0.008179821,0.002844668
195,-6.311653178,-6.491677946,-0.408450939,0.404852616,7.168508279,7.163850479,-0.197697015,-0.058416539,-0.020845281,0.116934023,-0.053824354,0.066550707
196,-6.297493873,-6.491544232,-0.391483669,0.390411184,7.166156263,7.149839741,-0.134772721,-0.121635744,-0.080660867,0.117526202,0.007165705,0.006098358
197,-6.273825011,-6.462910772,-0.384022711,0.404944347,7.185140157,7.152324659,-0.01100767,-0.057374047,-0.080375578,-0.002693691,0.06877527,0.002352373
198,-6.271394376,-6.48437927,-0.393600544,0.388090627,7.194648637,7.154523764,-0.072315132,-0.057374047,-0.021030231,-0.002693691,0.068831841,0.002352373
199,-6.271467069,-6.474897788,-0.393612863,0.400150757,7.204055692,7.161580921,-0.074165316,0.003798127,0.039163118,-0.002718799,0.00812325,-0.059204534
200,-6.288123885,-6.493936682,-0.393803356,0.390397323,7.194488548,7.149829579,-0.072548484,0.002774612,0.03869288,-0.002435263,0.06916988,-0.120209161
201,-6.281049321,-6.494006851,-0.38411887,0.388109788,7.192126839,7.166130881,-0.011707727,0.062904295,0.098793754,0.117167344,0.069789386,-0.117567733
202,-6.273982754,-6.484470897,-0.376839166,0.390587061,7.194488296,7.170836206,-0.072781836,0.064951325,0.098415991,0.116600272,0.069507919,0.004441521
203,-6.28085741,-6.489174897,-0.386489774,0.390454888,7.170980602,7.154509009,-0.009857543,0.067007844,0.038600405,0.056361111,0.130497977,0.063849295
204,-6.292756178,-6.484433742,-0.398643146,0.397673485,7.182723266,7.156875596,-0.011474374,0.130236537,0.039070643,-0.003903158,0.069451347,0.061700163
205,-6.311829094,-6.486739532,-0.401270473,0.380900814,7.180208182,7.154496892,-0.010090895,0.25566092,0.098323516,-0.06447607,0.130836016,0.058998752
206,-6.304708007,-6.472464079,-0.39398153,0.385842557,7.175514348,7.166216771,0.051449919,0.192451204,-0.020744942,-0.123555979,0.130441406,-0.064055077
207,-6.297471341,-6.486832815,-0.401093555,0.378643122,7.177993637,7.175457301,0.05006644,0.005854646,-0.079997815,-0.06295796,0.069056738,0.00020324
208,-6.290770422,-6.481883637,-0.389068964,0.385593134,7.220295804,7.135891931,0.110673845,0.005854646,0.03982617,-0.06295796,0.070014283,0.00020324
209,-6.295384542,-6.477061584,-0.393905674,0.392707281,7.206178758,7.121951645,0.173131435,0.130246026,0.099456806,-0.063575247,0.131680419,-0.000901318
210,-6.310483745,-6.493887142,-0.322105466,0.399845888,7.193693558,7.131215432,0.11114055,0.2567129,-0.079620052,-0.243775873,0.069338205,-0.067801063
211,-6.277742024,-6.477173048,-0.46324749,0.371448009,7.19514955,7.163833474,-0.193996647,0.255679897,-0.141231979,-0.183820248,0.067592828,-0.06620421
212,-6.287923977,-6.498871783,-0.393769478,0.423857376,7.168619145,7.149887232,0.359370709,0.314776576,-0.258218808,-0.004262016,0.191543219,-0.061965928
213,-6.266987421,-6.481988477,-0.352747551,0.383350363,7.180249935,7.159181893,0.299913431,0.380071277,-0.259066809,-0.184437535,0.252308381,-0.067308768
214,-6.280557199,-6.479707456,-0.427297139,0.395398751,7.194832099,7.17086767,0.055150287,0.446380004,-0.14113164,-0.3052245,0.251858588,0.050954501
215,-6.307358902,-6.482123019,-0.379634172,0.395414733,7.187132465,7.175516614,0.423678482,0.445356488,-0.258781521,-0.304940964,0.313917946,-0.010050126
216,-6.293485273,-6.513241347,-0.333874203,0.414280878,7.177489493,7.161451745,0.421828298,0.57079036,-0.198588172,-0.425185965,0.253209356,-0.075353018
217,-6.273381592,-6.462844743,-0.419998956,0.395346568,7.183082973,7.147643273,0.177065154,0.387302301,-0.080653003,-0.604126909,0.252759562,-0.078486741
218,-6.275908912,-6.460339245,-0.417647786,0.354786229,7.197151048,7.161536068,0.304297221,0.448474476,-0.141031302,-0.604152017,0.436124348,-0.140043647
219,-6.262103619,-6.489456366,-0.381513102,0.412221486,7.21110427,7.191831989,0.426445441,0.822681618,-0.140275775,-0.665959503,0.436687283,-0.144954175
220,-6.285824822,-6.439079564,-0.393789782,0.402825269,7.206270237,7.173386689,0.363754499,0.63713704,-0.1401833,-0.784661286,0.375359186,-0.207495672
221,-6.264619303,-6.460807245,-0.364739404,0.405331242,7.201536874,7.210573651,0.302913742,0.694167712,-0.200284175,-0.485191805,0.374739679,-0.200063684
222,-6.25995866,-6.45369841,-0.362298235,0.407839417,7.213321794,7.222257473,0.178681986,0.567710326,-0.081123241,-0.364663268,0.313806192,-0.195765419
223,-6.285924406,-6.448476043,-0.37457925,0.369252204,7.18965078,7.168608957,0.178215282,0.62783052,0.038322981,-0.185388573,0.314482269,-0.130522511
224,-6.280512856,-6.479545696,-0.424886198,0.361896054,7.185405405,7.168460139,-0.003390216,0.876603791,0.036719453,-0.126951058,0.374684496,-0.070130146
225,-6.283139759,-6.496591626,-0.403324497,0.400234903,7.182854023,7.194103206,0.181448945,0.877636795,0.037382505,-0.186906683,0.436575529,-0.071726999
226,-6.288749038,-6.475045543,-0.357857909,0.407475922,7.22006337,7.184893162,0.179832113,1.004094181,0.037852743,-0.30743522,0.375528899,-0.076025264
227,-6.28805337,-6.486693305,-0.388984554,0.380841128,7.177986923,7.145178679,0.057450541,1.191714254,0.096820327,-0.368316776,0.375304002,-0.079278954
228,-6.27605284,-6.520517703,-0.400848195,0.461929761,7.189958285,7.138237123,0.240906223,1.686209227,0.038230506,-0.369935316,0.375810367,-0.266711068
229,-6.290762425,-6.477536208,-0.386664182,0.424235792,7.215572637,7.189581095,0.302213685,1.752546419,-0.021114842,-0.669738549,0.375753796,-0.336252241
230,-6.264534254,-6.448561046,-0.371935269,0.390765139,7.20159579,7.166329532,0.241372927,1.383513782,-0.081215716,-0.967381276,0.375134289,-0.401927461
231,-6.281263763,-6.422301061,-0.372138081,0.393369284,7.201435701,7.175765098,0.240439519,1.321308604,0.157676728,-0.907400543,0.376486444,-0.338773702
232,-6.295489943,-6.427591906,-0.381906407,0.467716886,7.201377037,7.210860735,0.302897108,1.19589371,0.217307364,-0.90649972,0.438152581,-0.398673771
233,-6.310058499,-6.437002426,-0.35808479,0.427027555,7.193988139,7.215384507,0.304980644,0.823743086,0.097390904,-0.904931395,0.498523133,-0.33435547
234,-6.305023492,-6.43908536,-0.379614438,0.38618583,7.194210627,7.189654573,0.179598761,0.634066495,0.097575854,-0.783810678,0.375866938,-0.390509554
235,-6.295407073,-6.453636486,-0.384295789,0.419650123,7.194341384,7.19898979,0.239756096,0.693163174,-0.080745478,-0.604252447,0.314087659,-0.386271272
236,-6.299986306,-6.482287263,-0.405950569,0.421786242,7.201527684,7.184896095,-0.005923823,0.696233719,-0.141509404,-0.605103055,0.25157712,-0.203257391
237,-6.273877352,-6.482179147,-0.388838433,0.400243465,7.199290017,7.182516413,-0.005923823,0.698290238,-0.141509404,-0.665342216,0.25157712,-0.143849617
238,-6.290824942,-6.456009098,-0.389078203,0.443391967,7.227351095,7.173410241,0.05838395,0.451573486,-0.142072117,-0.784018892,0.373951847,-0.144834208
239,-6.286013813,-6.455827536,-0.35777042,0.400351176,7.175402726,7.175639537,0.241839632,0.329257602,-0.200661938,-0.962984943,0.374458212,-0.209524837
240,-6.291125872,-6.465675489,-0.326640126,0.431570579,7.170398155,7.203625934,0.055150287,0.455714988,-0.14113164,-1.08351348,0.251858588,-0.213823102
241,-6.321979799,-6.443989103,-0.360628278,0.410092869,7.193893428,7.1920195,-0.255304109,0.334413131,-0.081886632,-1.203090979,0.067649399,-0.154907623
242,-6.307682384,-6.417678751,-0.367671862,0.424522642,7.210551911,7.180516936,-0.316144867,0.523037742,-0.141987506,-1.144911893,0.067029892,0.028046275
243,-6.295723278,-6.434411062,-0.348297986,0.400625143,7.17993622,7.199026529,-0.318911826,0.52199525,-0.260493251,-1.025284179,-0.055739445,0.092244609
244,-6.307489015,-6.408222039,-0.353218536,0.431858489,7.163398801,7.196881166,-0.502817578,0.393490834,-0.500048747,-0.90418857,-0.118982633,-0.025466381
245,-6.309787358,-6.420124052,-0.374862822,0.405551964,7.184718554,7.208416854,-0.504667762,0.082512385,-0.439855398,-0.902645352,-0.179691224,-0.022704986
246,-6.309958916,-6.443867774,-0.377295322,0.393289295,7.210607596,7.182662298,-0.4433603,0.081469893,-0.499200746,-0.783017639,-0.179747795,0.041493348
247,-6.300638349,-6.460934334,-0.350782272,0.438789175,7.201075994,7.205992521,-0.317045008,0.268056962,-0.738278139,-0.783943569,-0.058443755,0.039836511
248,-6.276504975,-6.451158206,-0.34564602,0.400528113,7.163637192,7.198955394,-0.257821082,0.14573159,-0.677707027,-0.903237532,-0.118870878,0.037747362
249,-6.286034166,-6.439183575,-0.352967017,0.402959561,7.170659921,7.194352668,-0.322362207,0.021330722,-0.617421203,-0.842948156,-0.240907566,0.101453401
250,-6.307607512,-6.45843953,-0.372466025,0.433914619,7.208239424,7.189684672,-0.321428798,0.025453247,-0.856313646,-1.023098567,-0.242259722,0.157667468
251,-6.290689731,-6.45355062,-0.386651863,0.43380805,7.206165582,7.168739017,-0.198813874,-0.036742442,-0.975004342,-1.022789923,-0.242372864,0.158219747
252,-6.300231277,-6.410680517,-0.386764676,0.441442406,7.203722338,7.20155239,-0.072965287,-0.162157337,-1.094635513,-1.0218891,-0.120392746,0.098319678
253,-6.266847132,-6.403664966,-0.381564888,0.441692889,7.206355003,7.234196621,-0.137506412,-0.415062622,-1.034349689,-0.840504115,-0.242429435,0.044314726
254,-6.283764912,-6.393987881,-0.367379051,0.417828495,7.208428845,7.234181572,-0.199280579,-0.419194636,-0.85555812,-0.600681615,-0.241696786,0.05070214
255,-6.283959002,-6.391734942,-0.360201665,0.41564435,7.222480513,7.264470356,-0.261054745,-0.366305466,-0.67676655,-0.001717545,-0.240964137,0.127123022
256,-6.276909149,-6.408024816,-0.336100811,0.367394291,7.20118686,7.215367207,-0.201597467,-0.064624048,-0.675918549,0.536339861,-0.301729299,0.138733308
257,-6.300035008,-6.405369871,-0.398748545,0.357556711,7.19676524,7.17109358,-0.509518256,0.06077187,-0.438444683,0.654783216,-0.362831112,0.323836338
258,-6.288189301,-6.424843714,-0.369780182,0.426843199,7.166070994,7.175832913,-0.572892621,0.250429485,-0.676774414,0.653006677,-0.486557995,0.505193383
259,-6.297704677,-6.441512444,-0.367485134,0.419510532,7.15655282,7.166426856,-0.451427824,0.001665702,-0.914441093,0.534897073,-0.548393844,0.382199538
260,-6.316843749,-6.441229354,-0.384544228,0.369204261,7.184728499,7.154662124,-0.265421902,-0.304157218,-1.212393596,0.296334256,-0.488193005,0.439578146
261,-6.297764295,-6.453676089,-0.396336349,0.43872631,7.208527291,7.189716135,-0.139790033,0.014042767,-1.689893195,-0.065226248,-0.42928775,0.488240258
262,-6.264450664,-6.458419728,-0.395955363,0.424376526,7.22766158,7.194321499,-0.080099402,-0.1684028,-1.748768305,-0.363794906,-0.490390951,0.420908201
263,-6.269716108,-6.468027472,-0.367254488,0.448151392,7.246194287,7.180359229,-0.080332755,-0.289695169,-1.689045194,-0.543044494,-0.490052912,0.417222199
264,-6.248085343,-6.437107266,-0.374183435,0.424784784,7.241755504,7.238674469,-0.32671273,-0.413044057,-1.570639787,-0.66205492,-0.551549335,0.354128423
265,-6.25759636,-6.484843993,-0.381501352,0.414850091,7.246426468,7.224471627,-0.638333887,-0.227489991,-1.212779223,-0.603025226,-0.73406833,0.354068439
266,-6.279894442,-6.448980369,-0.345844382,0.415087855,7.292961337,7.229283166,-1.012645986,-0.037832376,-0.854826185,-0.604801765,-0.977915423,0.535425484
267,-6.282103358,-6.429685604,-0.324211846,0.395973347,7.236319385,7.215342586,-1.071869912,0.086559004,-0.915397297,-0.605419052,-0.9174883,0.534320926
268,-6.234777807,-6.424923819,-0.462735212,0.396030912,7.202616498,7.220022016,-1.685377969,0.275193103,-1.037680676,-0.606912055,-1.043072314,0.654673344
269,-6.233071908,-6.389038738,-0.417157067,0.391484708,7.221080344,7.224822415,-1.812610035,0.277249622,-0.977302377,-0.667151216,-1.2264371,0.714081118
270,-6.240941724,-6.405809788,-0.376504377,0.422334257,7.248899044,7.201528156,-1.814926923,0.460728193,-0.797662806,-0.428538183,-1.286469613,0.779816322
271,-6.240275865,-6.420233824,-0.422056629,0.422340617,7.232809832,7.215444502,-1.631237889,0.646263282,-0.915975738,-0.250164311,-1.286301287,0.9049593
272,-6.232824758,-6.439389943,-0.441149443,0.40798227,7.225980259,7.231636658,-1.938925327,0.334280294,-0.738224984,-0.367681735,-1.347741139,0.721513106
273,-6.228385095,-6.42062503,-0.412308037,0.494189665,7.225790334,7.229588915,-2.001616268,0.149778209,-0.738132509,-0.606011232,-1.409069237,0.594773275
274,-6.228051436,-6.422733526,-0.426672049,0.479540394,7.204742291,7.185283824,-1.814693571,0.023349287,-0.857385917,-0.664498961,-1.286807652,0.411267097
275,-6.227541141,-6.405962476,-0.469847238,0.448690845,7.205095788,7.208578083,-1.993298758,-0.286577182,-0.800206811,-0.842255546,-1.104174127,0.287228677
276,-6.254386468,-6.389319308,-0.446225923,0.482215966,7.239924291,7.199408983,-1.932458,-0.789260276,-0.740105936,-0.838368718,-1.103554621,-0.013376227
277,-6.240102129,-6.387042392,-0.424430612,0.51567284,7.214015359,7.192508463,-1.75200263,-0.855550026,-0.857478392,-0.83692593,-1.225479554,-0.256842458
278,-6.235333905,-6.360576111,-0.438795193,0.446666678,7.23769657,7.225072467,-1.38300773,-1.108426846,-1.094574494,-0.834557211,-1.164096273,-0.498651851
279,-6.226082393,-6.303054184,-0.400276716,0.411194198,7.218659719,7.236880577,-1.318699957,-1.487780029,-1.095137207,-0.592315778,-1.041721546,-0.610960018
280,-6.239640536,-6.310079636,-0.460403777,0.415712762,7.209606412,7.201917932,-1.258092552,-1.56131978,-0.975313222,-0.051839438,-1.040764001,-0.718045313
281,-6.227767219,-6.296018795,-0.472288976,0.435200387,7.238040121,7.243955421,-1.072319982,-1.638991546,-1.213542614,0.728459402,-0.980225123,-0.818743195
282,-6.216499422,-6.365472474,-0.431401421,0.425379683,7.263690016,7.266933972,-1.255775664,-1.841045202,-1.154952793,1.44970344,-0.980731488,-0.980937999
283,-6.204491614,-6.389458026,-0.419229569,0.449101223,7.237836768,7.257569835,-1.379090644,-1.661679669,-0.857092765,1.808794795,-0.979604229,-1.034018343
284,-6.211289219,-6.389295438,-0.438480823,0.417975588,7.219111157,7.252838321,-1.626170676,-1.729049865,-0.559518025,2.168553652,-1.040086536,-0.962880317
285,-6.211743554,-6.408132968,-0.438557818,0.35564327,7.277905255,7.247953103,-1.813326726,-1.607766984,-0.380541506,2.407475329,-1.162010082,-0.896592834
286,-6.201771664,-6.388891847,-0.445582354,0.348488681,7.2357239,7.234040372,-1.814260134,-1.484418096,-0.141649062,2.526485755,-1.160657927,-0.833499058
287,-6.172553861,-6.41783151,-0.490808487,0.384291632,7.236371473,7.247979292,-1.752735954,-1.239776839,0.156874018,2.82474577,-1.097639635,-0.766719279
288,-6.192422028,-6.398596185,-0.443098638,0.360497605,7.25931338,7.250334444,-1.693061957,-0.994112067,0.515590447,3.122722248,-1.095329935,-0.638934874
289,-6.19455753,-6.422658496,-0.443084494,0.396208908,7.226365815,7.245657264,-1.754836124,-0.872829186,0.694382016,3.361643925,-1.094597286,-0.572647391
290,-6.206729619,-6.384153176,-0.433653352,0.348576089,7.240283495,7.243378909,-1.820310658,-1.066637792,0.993560284,3.722587141,-1.215281819,-0.622414061
291,-6.228024546,-6.315039543,-0.445894899,0.411154734,7.230768804,7.241488873,-1.943625638,-1.135012526,1.291420312,3.963285356,-1.214154561,-0.737483623
292,-6.237189549,-6.391692855,-0.474785012,0.403699351,7.223857697,7.26677206,-1.947559358,-1.085212878,1.471530121,4.682444212,-1.335233703,-0.718873662
293,-6.242210021,-6.381937321,-0.46527003,0.405893118,7.24019575,7.227215874,-1.762720197,-1.53601134,1.472193173,5.166234469,-1.273342671,-1.129265273
294,-6.229422956,-6.393852546,-0.508244917,0.374847389,7.198331846,7.245729081,-1.759719886,-1.424016003,1.530975807,5.885084681,-1.150911372,-1.11120759
295,-6.222168117,-6.384353711,-0.515353862,0.403532037,7.198459371,7.234188801,-1.697028945,-1.124400592,1.530883333,6.543053338,-1.089583275,-1.096403598
296,-6.239298161,-6.410576577,-0.493993718,0.374720517,7.216936645,7.24099884,-1.450415617,-1.259131495,1.352754815,7.202898963,-1.028424891,-1.016729025
297,-6.224661269,-6.439383354,-0.508190051,0.393704973,7.200729349,7.243251006,-1.510789671,-1.523380841,1.173207719,7.924451645,-1.029720475,-1.178371551
298,-6.217966887,-6.398616815,-0.481746012,0.367658636,7.221747808,7.248021601,-1.38564114,-1.788691656,1.23274588,8.884976218,-0.906726241,-1.150612781
299,-6.234917376,-6.454102037,-0.455548587,0.444032525,7.209612874,7.271261637,-1.321800071,-1.560531013,1.351629389,9.844165787,-0.783675437,-1.371290752
300,-6.214607249,-6.425106245,-0.556058909,0.403400842,7.210620658,7.250322917,-1.442564812,-1.952251773,1.410126735,10.62685845,-0.722853704,-1.652241121
301,-6.215489729,-6.413218237,-0.493719386,0.455884898,7.228924163,7.217882519,-1.381957406,-1.858803056,1.52995072,12.12654947,-0.721896158,-1.91844748
302,-6.244025679,-6.449838782,-0.489235943,0.50656518,7.202741045,7.320347393,-1.441881389,-2.02133017,1.648548941,13.80847608,-0.660454919,-2.421672673
303,-6.250740414,-6.43135289,-0.510876579,0.588376561,7.176979781,7.378856893,-1.50457233,-2.998523365,1.648641415,15.37677209,-0.721783016,-3.408948965
304,-6.265429646,-6.387149787,-0.501495969,0.439711283,7.207336938,7.283182803,-1.565413088,-4.787378514,1.588540541,17.24829153,-0.722402523,-4.259052109
305,-6.24847334,-6.454475925,-0.52048213,0.499212292,7.207654136,7.297014827,-1.630187565,-4.965362727,1.708549476,19.59086416,-0.844101172,-4.988730424
306,-6.219925753,-6.461172131,-0.510543045,0.386777301,7.210201783,7.301381667,-1.813876599,-5.813065943,1.826862408,21.27646938,-0.844269498,-5.546885176
307,-6.217650682,-6.494351143,-0.517743814,0.329101018,7.236152972,7.289457955,-1.998032337,-6.051217792,2.064621562,23.73812776,-0.843761746,-6.028798996
308,-6.255675837,-6.571430296,-0.508557462,0.426833247,7.19337675,7.305668001,-2.002432762,-6.287332098,2.364177593,26.25889115,-0.964164811,-6.326102081
309,-6.228453248,-6.609600538,-0.582586788,0.407445749,7.187181826,7.300801742,-2.060739913,-7.335060918,2.482305575,28.78451752,-0.841676942,-6.799239421
310,-6.237962086,-6.678716584,-0.594711188,0.404323514,7.198947359,7.249251299,-2.061206617,-8.074881833,2.601751797,31.30945128,-0.841000865,-7.458152038
311,-6.262642821,-6.714448907,-0.535047698,0.449100728,7.207634749,7.176988544,-1.937674918,-8.879959496,2.661760197,33.7758722,-0.779053261,-8.362127738
312,-6.260822064,-6.781421786,-0.48223981,0.460583,7.200170276,7.162754534,-2.184288245,-9.992897621,2.839888714,35.94462529,-0.840211645,-9.393335566
313,-6.253035119,-6.838244613,-0.520503118,0.411918242,7.179387229,7.085523991,-2.309220058,-11.16696048,3.138218981,37.81504304,-0.900131016,-10.67599389
314,-6.257468964,-6.88281548,-0.54213326,0.332033021,7.167759419,6.97798766,-2.248846005,-12.14824773,3.317766077,39.3844732,-0.898835432,-11.90728869
315,-6.276502634,-6.970669149,-0.571191622,0.287852661,7.200736819,6.881999723,-2.253013077,-12.75530887,3.557598997,40.77275169,-1.019576536,-13.26869698
316,-6.2928018,-7.066470263,-0.578531783,0.323103358,7.155952132,6.870029018,-2.378394959,-13.06066013,3.557783946,42.52007133,-1.142232731,-14.80629943
317,-6.259502703,-7.135584617,-0.56613613,0.358029047,7.15852588,6.783624394,-2.746689802,-13.60548762,3.615710716,43.66935282,-1.204630128,-16.41866592
318,-6.23795117,-7.271430848,-0.558657948,0.366075737,7.142210445,6.668919325,-2.808463969,-14.14304614,3.794502285,44.16025659,-1.20389748,-18.2926163
319,-6.252227512,-7.421995762,-0.578048478,0.424449978,7.163396211,6.582224886,-3.059244368,-14.36754122,4.212463723,44.41036171,-1.385796968,-20.29772475
320,-6.293091115,-7.558388442,-0.56175683,0.456983518,7.167573481,6.556098536,-3.062027961,-14.46756902,4.511549516,44.18247283,-1.445153403,-22.80474961
321,-6.283559745,-7.64883351,-0.559242316,0.405911772,7.167645321,6.506674791,-3.311191528,-14.9274273,4.929040715,43.71406149,-1.566006262,-24.76580655
322,-6.321875675,-7.69991888,-0.550105241,0.303725965,7.162497321,6.284909739,-3.748194568,-14.89066768,5.287086229,42.76608782,-1.871181452,-27.29309821
323,-6.35539793,-7.924283175,-0.531294174,0.384978568,7.140854159,6.102444291,-3.936734097,-12.3764105,5.406809875,42.40532467,-2.054489666,-29.82651248
324,-6.385989432,-8.192262971,-0.562834427,0.476206139,7.12670157,6.022318544,-4.058882317,-8.687552378,5.406054349,41.74232159,-2.055052602,-33.11045985
325,-6.356915557,-8.371647011,-0.591260969,0.584496495,7.120156381,5.912323593,-4.180563832,-4.800630289,5.2858526,39.70281564,-2.056291615,-37.16484721
326,-6.345303924,-8.322546682,-0.567139127,0.492789073,7.127129635,5.742257801,-4.120406497,-1.585455258,5.107531269,36.88756518,-2.118070893,-41.29492323
327,-6.383152444,-8.453868062,-0.586763952,0.484552316,7.105754952,5.695091109,-3.874726578,2.804235319,5.168295195,34.3071236,-2.055560354,-45.61211901
328,-6.373387739,-8.631746219,-0.617857858,0.603513726,7.12726761,5.755185983,-3.871492915,8.199339526,5.167354718,31.42054792,-1.933467095,-49.64111239
329,-6.371441228,-8.761582168,-0.581852641,0.779578049,7.129347663,5.724765201,-3.871726267,13.2938143,5.227077829,27.81661503,-1.933129056,-53.80851587
330,-6.421486548,-8.737631972,-0.577629956,0.886699405,7.102958716,5.622617123,-3.873109747,16.02289122,5.167824957,23.68792887,-1.994513724,-58.64035533
331,-6.389943511,-8.580562057,-0.620434654,0.62161269,7.108313048,5.548113713,-4.179863775,17.44278811,5.106683267,19.56657483,-2.057305731,-63.64361081
332,-6.387903954,-8.280345437,-0.58922052,0.469646616,7.105728851,5.453515833,-4.182180664,19.84329706,5.286322838,16.63769378,-2.117338245,-68.25773792
333,-6.396820347,-7.706613533,-0.625278779,-0.177117357,7.077710785,5.167889965,-4.369336713,21.98148983,5.465299357,15.1458634,-2.239261791,-72.16028054
334,-6.398748685,-6.804793216,-0.661280917,-1.324909672,7.073278968,4.789294363,-4.429027343,26.51012597,5.524174467,16.09819179,-2.17815859,-75.59185865
335,-6.379256341,-6.628654162,-0.701844178,-1.858523423,7.087906368,4.972823266,-4.059349021,35.37978919,5.52550057,19.47887322,-2.054376524,-77.22749112
336,-6.403478383,-7.076053432,-0.651716659,-1.158102719,7.051988798,5.305701328,-3.689437347,51.40165311,5.467103563,24.73356747,-1.930932497,-76.92338828
337,-6.358022472,-7.539501555,-0.675192422,0.689028242,7.083192643,5.42688319,-3.127069058,61.64911932,5.526464639,27.78955941,-1.439688212,-74.61330209
338,-6.3794795,-7.767387049,-0.670637458,2.917319776,7.068836954,5.466092789,-2.446252917,60.43080442,5.706967939,29.20378696,-1.069298172,-67.85287075
339,-6.425024098,-7.735091201,-0.651983577,4.29507069,7.056486498,5.429861186,-2.07820806,50.7656498,6.126355819,30.38420867,-0.943149834,-53.15301541
340,-6.403609955,-7.666042982,-0.642125252,4.169861382,7.054262008,5.611565837,-2.014833696,36.61743179,6.36468555,32.16800423,-0.819422952,-34.37056977
341,-6.391947441,-7.665961753,-0.630011916,3.706020811,7.073092274,6.015821981,-2.013916921,25.00896396,6.543384644,34.18066912,-0.757362206,-15.97040792
342,-6.386944423,-7.463822833,-0.661160689,3.092112438,7.092207429,6.336716934,-1.952409374,15.99644323,7.259499263,35.52851458,-0.630931013,0.741867893
343,-6.386867371,-7.161696195,-0.670761335,2.617357184,7.096989511,6.632736659,-1.890218405,8.183844116,8.214036087,36.76303505,-0.442101036,14.69469619
344,-6.430370233,-7.169361734,-0.625699802,2.311166917,7.089149427,7.009375286,-1.954559446,1.784251228,9.049781876,38.59199771,-0.43764996,28.22375822
345,-6.446984883,-6.974778786,-0.618672872,3.171218733,7.063061019,7.040172942,-2.327738051,-5.457337497,9.944302437,39.88029357,-0.556361444,42.90526839
346,-6.444188601,-7.395153155,-0.632995591,3.580745772,7.03262879,7.493620037,-2.640759321,-18.28325158,10.66050167,41.31202556,-0.736852206,58.55474678
347,-6.489765188,-7.660207843,-0.623960834,3.710074262,7.039171,7.756042481,-2.522328103,-36.22517098,11.19923543,40.14803099,-0.794293551,70.51897286
348,-6.501757002,-7.697839239,-0.631323123,4.111645049,7.055577914,7.745178009,-2.279431777,-57.09099821,11.55908515,37.02964727,-0.791139447,80.38230256
349,-6.498680861,-7.51769786,-0.681649805,4.95197613,7.044254377,7.326261775,-1.844312188,-78.11683906,12.09641606,34.14350589,-0.419847046,92.08381533
350,-6.533634234,-7.43278903,-0.713177169,5.034181262,6.97596548,7.014652266,-1.102205219,-93.51995589,12.63516555,32.73128748,0.013899324,103.1039411
351,-6.562197815,-7.048644827,-0.727925816,4.601108394,6.982864165,6.651849615,-0.481546413,-110.2402686,12.99399018,31.72938704,0.446068642,117.6246588
352,-6.557861374,-6.713118941,-0.691891625,3.583006508,6.984967088,6.490140085,0.135195307,-119.9308592,13.11533309,31.96214373,0.693745916,129.7977748
353,-6.580985774,-6.388609007,-0.73771513,2.661841614,6.954538595,6.53361338,0.450033494,-120.5413267,13.17412358,33.47961147,1.061771071,139.5456561
354,-6.573549201,-6.512178355,-0.744793278,2.013187007,6.931148481,6.950889536,0.765788455,-113.4012454,13.41161318,35.81741639,1.491856973,144.9759822
355,-6.628501594,-6.336541329,-0.740650098,1.966084996,6.921176142,7.27999157,0.958228436,-103.187894,13.9469628,36.06147332,1.923070133,145.991476
356,-6.636127158,-6.295779543,-0.697552589,1.962172659,6.913698744,7.750727524,1.210825752,-91.65523332,14.30399109,35.47694058,2.292504014,143.1901769
357,-6.632929622,-6.32169873,-0.755068976,2.279247516,6.897730595,8.352390433,1.275800314,-80.91732702,14.95944212,31.84945771,2.540690427,137.996442
358,-6.657919842,-6.119116053,-0.834480598,2.546124309,6.851091826,8.754560205,1.035637679,-71.39633411,15.55328122,25.77422012,2.787131463,131.8332123
359,-6.626522193,-6.13427555,-0.877309934,2.428898329,6.87526027,9.509000569,1.165853422,-62.13627329,15.9692771,18.86821029,3.156340448,124.0637154
360,-6.652632587,-6.086457166,-0.851160646,2.21115162,6.81129505,10.19824373,1.241912453,-52.72483966,16.68115957,9.626999777,3.832191307,115.4377766
361,-6.78830465,-6.154344042,-0.811860001,2.05496662,6.675607069,10.52139947,1.131532125,-42.09145772,16.9752577,-1.600311806,4.321691603,107.114676
362,-6.718168005,-6.742632742,-0.894999254,1.455042637,6.698123524,11.49358895,0.96751169,-28.09008815,16.19302158,-14.15962792,4.926918991,97.93356146
363,-6.7084033,-5.869030173,-0.92609316,1.029197173,6.719636181,11.81543878,1.112762257,-14.85344943,16.06774755,-31.91831192,5.781458664,85.87549207
364,-6.761614167,-4.681389819,-0.854734964,0.97772478,6.690322717,11.67358368,1.134697843,-2.200759498,16.24033355,-47.08480992,6.637125596,71.38931589
365,-6.743268168,-4.212709888,-0.792145176,1.087767552,6.694698597,11.62690549,0.776103989,6.53026301,16.29543889,-55.59070738,6.941007976,60.04285384
366,-6.710654562,-4.052996166,-0.75102458,1.649031242,6.741720195,11.72208198,0.297412185,17.2405546,17.06505532,-65.77418102,7.431523775,46.25482651
367,-6.72343581,-3.978289133,-0.70083843,2.47780152,6.771766364,11.83150393,-0.063081754,24.84346132,18.43312863,-76.67584169,7.864936269,35.58703915
368,-6.738109048,-3.739677913,-0.686648257,3.351126748,6.792677188,11.65518769,-0.549657631,27.79122708,19.98055622,-88.11094176,8.176706684,28.66813557
369,-6.769946477,-3.407338355,-0.595824931,3.776633205,6.751653623,11.31514733,-0.91918577,26.16080099,22.00746469,-97.7995165,8.369651085,25.06965464
370,-6.775360206,-3.329171781,-0.5407115,3.912932026,6.748804429,10.8661918,-1.169799353,23.9844685,24.03606917,-104.5056785,8.441065163,25.46028303
371,-6.817829384,-3.528465657,-0.550753588,4.130775352,6.692028993,10.32772938,-1.857649328,22.59619222,26.48244228,-109.6160228,8.20764209,30.03571376
372,-6.861018939,-3.544291496,-0.515252664,4.34993038,6.658398061,9.456918754,-2.125831339,19.60286349,28.87408781,-113.1702705,7.670618105,36.98519778
373,-6.844362843,-3.765302505,-0.493431459,4.564785117,6.634863763,8.473410056,-2.087709393,14.25447369,31.02872971,-112.9390129,7.133649303,44.72676878
374,-6.986237908,-4.518125882,-0.562208062,4.591957481,6.539970899,7.794711938,-2.230726241,6.812116216,33.06232186,-109.1059033,6.65620665,53.80246873
375,-7.030370079,-5.609346049,-0.572155932,4.123169773,6.389102037,7.292793441,-2.065789031,-1.928314433,34.02325707,-104.3138271,6.113040007,64.37942725
376,-7.086939682,-6.798989039,-0.608769016,3.29442035,6.341812463,6.698760089,-1.889050661,-9.16584184,34.44386285,-99.35297734,5.933110793,75.74098179
377,-7.096853413,-7.731095597,-0.589717494,2.353387932,6.358026222,5.895892519,-1.962159283,-14.44183202,35.04353762,-93.97636059,5.569929936,85.8149442
378,-7.035768554,-9.456094444,-0.550687879,1.216419011,6.435914827,5.464268187,-1.853912392,-16.1263483,36.12213057,-86.8062424,5.210297792,93.0980149
379,-6.99826315,-10.82229602,-0.535928053,0.145829366,6.509067594,4.990057052,-1.745715403,-15.47824494,38.45349814,-83.89276842,5.040904352,97.74608498
380,-7.025711077,-11.58228207,-0.425885525,-1.053970691,6.489098534,3.966001902,-1.399505851,-12.54470647,41.98130922,-83.09168784,4.818350929,102.9284294
381,-7.081267531,-11.68519161,-0.352145361,-2.128305232,6.450335505,2.521042129,-1.49446641,-9.878783553,46.10699873,-81.19318438,4.169881213,104.4198918
382,-7.171350652,-11.98781808,-0.329087656,-3.369507568,6.317571286,0.97234408,-1.592893985,-8.679179326,50.29335183,-75.84265871,3.399656276,99.97451455
383,-7.358283992,-12.92242228,-0.369514258,-4.919015668,6.132641203,-0.712538837,-1.812286384,-7.040873329,53.76274231,-68.67129092,2.563765309,90.2036652
384,-7.420427064,-14.15097487,-0.49967735,-5.773128291,6.022551303,-2.611354047,-1.961337121,-2.628697229,56.51395227,-60.65461092,1.968285862,76.09843844
385,-7.480520961,-15.37665521,-0.800136416,-5.408069022,5.909152223,-4.258031387,-1.601659676,0.799754037,58.24818906,-50.09619322,1.979777794,57.91969677
386,-7.549064763,-16.87020116,-1.043217117,-4.253687651,5.872821414,-5.671033209,-0.405247858,-3.057411395,58.96075818,-37.63257412,3.454301258,37.53634607
387,-7.587461922,-18.5493163,-1.175519897,-2.593741191,5.786497491,-6.785449317,1.069647216,-14.46850419,59.60524024,-26.21475479,6.211591777,18.10669946
388,-7.61205033,-19.80078793,-1.099016779,-1.179307624,5.757419187,-8.520625547,2.479784446,-30.53927521,59.9521397,-17.49413945,8.783770746,3.589094731
389,-7.680650993,-22.87231622,-1.116561118,8.245244885,5.691044043,-17.65971604,4.285452669,-77.15895114,60.71043299,21.32439507,12.51989076,-42.93760163
390,-7.671812392,-17.95962004,-1.109357153,-10.52191125,5.773388343,-29.41234233,6.09017085,-223.7559358,62.12521026,77.1147864,16.32077582,-98.94093287
391,-7.599051224,-33.1784992,-1.10868381,22.33022267,5.945776074,18.84567667,8.560620448,-155.4086941,65.51453535,153.5397204,20.19695894,-208.6342824
392,-7.510002689,-22.15995708,-0.894353716,-3.297078827,6.156578905,25.43649122,11.32872334,-309.7537108,71.29420345,-13.8754137,24.14911758,-141.6655053
393,-7.330040712,2.129937386,-0.930890037,-46.40783386,6.433787609,11.54226336,13.82234371,-249.264765,81.07804108,-87.10377768,27.57337929,-45.95106605
394,-7.319655932,1.213076825,-0.966685713,-38.66468019,6.382434863,6.077416769,18.00950441,-78.82247228,94.27761388,-40.18817437,30.90269704,-28.86967774
395,-7.522143468,-8.52967046,-0.733501433,16.57071488,5.934082956,11.32349377,22.19733191,95.68006864,108.1332004,35.1203105,34.35782648,-36.57869116
396,-7.617637004,-8.279701615,-0.201834313,9.145914183,5.719547123,8.124933622,25.86032944,-7.750480482,121.3400964,20.16381393,36.34186664,3.898866177
397,-7.59230005,-4.223307419,-0.165625598,-11.67835471,5.787705264,6.436900779,27.64091536,-27.32147158,136.2206029,13.66674003,36.67866886,16.95652866
398,-7.825969973,-5.648184729,-0.324219558,-0.120886648,5.64561183,8.34494859,29.83898591,27.19702001,153.6718476,33.49436953,37.03197702,13.77056698
399,-8.081847455,-7.466546501,-0.065748564,2.741287398,5.570494092,7.207139927,30.84207661,21.92713145,166.8126516,37.63315826,37.7215968,19.17409152
400,-8.454559841,-7.731068297,0.253461816,1.635156889,5.672502051,6.541826226,29.74956259,14.05473016,183.5851321,32.2351075,38.23912716,15.07261189
401,-8.834786948,-7.473380428,0.251219828,3.364597617,5.69471551,7.057152364,27.47932205,10.16739303,200.2361616,24.01158123,38.07912063,8.237535326
402,-9.901183504,-7.329890705,0.7125893,2.064869208,6.254548971,6.793797246,26.21658689,-0.524538027,215.3333808,15.27474966,38.83052802,3.095962701
403,-10.18063681,-7.242033538,1.059604966,1.685012918,4.148786071,6.788618378,20.82859875,-1.588884284,219.4980617,9.417413119,36.63202437,0.204203863
404,-11.89745169,-6.729082675,1.539846897,1.611355537,4.398782494,7.149370628,18.73814865,-3.606873399,228.6112877,5.062179177,30.57001781,-2.33432632
405,-11.19025769,-6.360252404,1.884864415,-0.053883618,3.918339185,7.128386535,16.37944716,-5.592918063,222.0225003,4.295184472,23.50200025,-2.886454133
406,-11.0853858,-6.220638778,1.733399795,-0.363336275,3.264391596,7.237740865,18.82109788,0.04171809,215.9479244,8.092916462,15.60427014,-0.39432781
407,-11.22626486,-5.998934467,1.332219942,-0.515601271,2.316094971,7.53883627,28.09468008,4.931882206,208.8261571,12.9678827,9.563097151,3.353261767
408,-10.6495706,-6.038702113,1.452285706,-0.443281993,2.054934263,7.289573985,41.56338927,8.950159802,200.4650769,18.62319065,4.938037632,7.86139787
409,-10.11348678,-6.233385786,2.092277347,0.506350418,1.918538794,7.092965774,53.52629921,13.16245475,193.6576063,22.60476942,-0.966967327,11.04206807
410,-11.09446502,-6.237118019,1.836565472,1.710472283,1.191434071,7.242539398,61.71190134,14.20001208,190.4992641,24.63376068,-10.59208439,12.00204175
411,-12.16203326,-6.041533757,2.056494527,1.957326735,1.038223333,7.141446043,65.88326529,8.864230747,189.1785993,24.79294929,-21.62909014,9.245966314
412,-12.68384031,-6.031084196,1.895471064,1.761239492,1.991708234,7.141029968,63.10730106,4.05115533,184.2077831,26.27235337,-37.29673787,5.665986359
413,-12.25284294,-6.289636903,0.334917901,1.340683754,3.367880165,7.069060982,60.91748854,-0.367214175,180.3865793,27.50526296,-46.78994495,3.11338398
414,-12.11751741,-6.881217508,-1.164596327,0.773027028,4.863000584,6.739084256,66.93582267,-2.674519882,181.8041928,27.04100728,-47.60895757,2.266978692
415,-11.64993408,-7.39522879,-2.325997326,0.554818655,5.841182073,6.372983221,76.60336521,0.189147146,187.3703494,24.62237199,-41.42894802,3.581358432
416,-10.45626368,-7.393262466,-2.582941218,0.393669736,6.127617911,6.605569956,80.94902672,5.181768374,201.675414,22.36828959,-34.2469884,5.918829911
417,-8.553087611,-7.153206699,-1.861475555,0.435161887,5.897944371,6.89089094,69.97107489,9.517358027,223.6338664,21.85742442,-32.64646907,8.003109791
418,-8.807385454,-7.02933996,-0.938492041,0.51030277,5.833940539,6.933523993,36.33238313,12.45162435,247.7922828,23.03324105,-40.11025749,9.900233193
419,-9.587749847,-6.928263663,0.199184781,0.422127878,5.462072802,6.894142316,-17.51734978,14.19588956,264.1002197,24.81391109,-60.22464656,11.94582768
420,-10.76638553,-6.73029044,1.668646256,0.493018947,4.460418948,6.953386129,-82.67572313,16.67814413,272.6585389,27.6672433,-91.17813315,14.62358446
421,-10.09841514,-6.456646132,-1.245178499,0.672515108,4.476288809,7.094740133,-158.8505461,18.14354613,263.4665828,31.96359819,-114.2252576,17.53151606
422,-8.673910487,-6.3989321,-12.6437735,1.025154754,11.80716526,7.200642842,-225.948938,18.12803884,235.1989149,37.89209155,-127.2062261,19.15316333
423,-28.57607166,-6.499951334,-34.49125378,1.210759372,24.55498969,7.140082093,-220.1258034,16.24890714,193.9496787,42.57616328,-155.7982917,19.59875711
424,-27.79252093,-6.824186051,-33.15737439,1.224051367,24.42714417,6.894135944,-78.67712955,13.42033102,25.95283642,48.10481048,-243.3341386,19.95298178
425,-7.569199716,-6.940308364,-22.84949625,1.117304187,19.40049392,6.765267502,38.24498991,12.04202515,-83.5694212,51.59212068,-251.7839997,19.32514161
426,-3.568904874,-6.831464027,-14.04007644,1.300239923,17.47475338,6.845363074,111.818893,11.47013082,-129.1436357,55.61303438,-208.4886092,19.13152588
427,-6.334132764,-6.800817732,-6.226295056,1.419914873,17.14739569,6.8294668,136.1554921,9.597130724,-161.0128867,60.35507698,-154.4751304,20.00574891
428,-6.032107271,-6.753172454,1.642775947,1.598814993,15.76971429,6.708951012,124.1028089,7.822943616,-189.0176134,65.0439186,-104.207608,19.29115023
429,-8.552334982,-6.776282998,5.551684492,1.611894262,15.41745213,6.531836767,61.13133485,5.282932978,-208.7286147,69.9208674,-47.59438757,17.61189541
430,-14.31378417,-6.867567434,5.623746172,1.706972282,15.05777672,6.520025631,-31.93827675,4.651437563,-244.6945693,75.45002841,9.155135081,15.44504832
431,-17.60239903,-7.022535113,3.417938697,1.700615861,12.80241854,6.414524058,-118.515779,4.079114734,-302.4648426,80.68137095,56.34904989,12.78162766
432,-20.99294334,-7.162732121,-0.193162151,1.627217843,5.183295111,6.285631972,-183.3951325,3.943251667,-361.405416,85.49256482,94.84552206,9.737135311
433,-11.75524751,-7.391597468,-2.517136913,1.593925917,-13.60627576,6.149469913,-219.2075794,4.258215527,-381.285386,89.64095216,118.4972825,6.915230132
434,-2.8456453,-7.549097,-3.386347939,1.685239025,-14.79256979,5.983618156,-260.2039706,4.661171699,-324.6232078,92.46915651,126.4448752,4.240655781
435,-11.34623241,-7.671910515,-8.807221174,1.51361303,-5.529159292,5.814966438,-291.0578761,3.084119926,-245.0725144,95.18505791,110.3962206,2.068597669
436,-13.96304451,-7.732360213,-16.70991062,1.337384407,4.34269941,5.618613159,-253.3818,1.959856717,-250.0536752,97.77463452,74.89177697,0.804549306
437,-12.69511172,-7.845849796,-23.50218273,1.289794151,7.845939708,5.387393783,-155.515957,1.03135426,-299.3174745,100.5994217,29.40030368,0.338291675
438,-0.449817719,-7.943190707,-14.16188406,1.250208021,4.75380772,5.270410358,-65.35440893,0.251930894,-320.595976,102.6410496,3.993197384,0.521221292
439,4.971521933,-8.197696072,-8.200419405,1.234914684,5.510700884,4.980430563,-31.74299957,-0.707928961,-274.19524,104.6222301,-6.455077722,1.009234029
440,0.063788953,-8.309357729,-7.022047122,1.292704956,7.424648481,4.768102847,-31.79251233,-1.707334336,-228.1583944,105.7620723,-42.81905136,1.963480115
441,-2.981712006,-8.330495041,-7.713190591,1.430002199,8.802528185,4.563333755,-31.37839534,-3.580540426,-210.9767309,106.8474139,-100.7094102,2.679842745
442,-2.392976515,-8.3524692,-8.916647235,1.753874195,8.091193704,4.358999108,-8.338253331,-4.487416228,-205.2601057,108.8308376,-163.8109908,2.618261557
443,-3.473132633,-8.409482192,-7.22923003,1.588201828,6.385509753,3.941376286,38.52406759,-5.590014829,-188.5475244,110.3403624,-208.8559075,1.508483715
444,-8.085952959,-8.483472565,-3.315189608,1.491695517,4.604179895,3.507536981,90.85877899,-4.916125858,-164.0826556,110.5188189,-232.8333637,1.080166816
445,-13.19660826,-8.619435086,0.077844387,1.597395754,2.159003659,3.327832784,134.520073,-3.71791765,-148.346993,109.7923531,-239.7472767,1.294529785
446,-16.50767857,-8.683955863,1.580167562,1.8133342,0.200407932,3.116075917,160.3511845,-2.852001431,-143.8261913,107.939615,-232.1563565,-0.958871158
447,-20.15600954,-8.80981096,1.894073886,1.971439316,-2.377463082,3.265006497,190.709585,-2.629573882,-145.068703,106.3346059,-202.0529918,-4.237440561
448,-23.47278028,-8.902712351,0.697969532,2.23745238,-4.70709863,3.425977753,225.4278203,-3.447397431,-153.6312838,105.2840596,-149.080536,-9.627963775
449,-26.13509433,-8.91062761,1.378247134,2.309707484,-6.760974258,3.509978276,260.8457002,-6.178306207,-171.4157577,105.0912244,-84.92553152,-16.93171075
450,-28.39793733,-8.886780447,3.909924564,1.952501496,-8.29440221,3.364807537,274.3562773,-9.35290577,-194.0954508,105.7382273,-23.21810753,-23.84320805
451,-28.30856467,-8.852111492,6.656016378,1.339274372,-10.77581089,3.198115498,252.2875109,-12.19940229,-216.6194475,108.1093575,20.93053521,-27.90494515
452,-24.43801894,-8.715504585,8.678228552,0.489315684,-15.47501249,2.952094051,195.4775415,-13.47711381,-224.9637963,113.2137181,42.11008606,-28.24675633
453,-18.7817783,-8.526563668,8.09897024,0.042678067,-19.27279657,2.886617656,106.1258019,-11.64795805,-199.2446907,118.8235589,50.33229242,-24.51394748
454,-14.53275026,-8.368803796,3.091472655,-0.365987375,-23.47413069,2.802461845,15.41110724,-9.497295774,-161.7503791,129.0234885,41.15713972,-15.2925351
455,-12.00676859,-8.46093621,-1.801178827,0.151839489,-28.83843137,3.06419888,-40.68327747,-5.478490806,-69.2838573,142.7509484,3.274423189,-5.933024396
456,-14.55106403,-8.612027593,-7.39902127,0.391631482,-25.69449193,2.919688917,-64.35642875,-3.473602619,92.07490717,157.2108713,-42.73679704,2.792270575
457,-17.12410931,-8.826245618,-10.35842505,0.570423313,-18.56446846,3.017043455,-44.23877269,0.426599465,157.5271744,171.6702994,-94.03668826,9.548296825
458,-19.04547051,-9.028351515,-11.91800774,0.579518901,-17.78726401,2.75296801,-14.36653643,4.038663037,133.1109709,184.0961819,-125.1090315,15.52073593
459,-49.8913311,-9.811953426,-32.2672958,0.503109294,-20.58588956,1.617301264,20.06113243,7.948646057,166.4934481,194.9727329,31.81045477,19.06971498
460,-23.38575338,-11.12327727,43.47601027,0.637814355,-11.82277707,1.050639683,529.4996548,16.67811372,-31.86549596,211.1018466,124.0275794,22.53257322
461,-57.22573628,-10.46953705,34.05322602,1.350025639,-2.513306665,2.22918136,352.5505764,24.02439789,-64.39277894,224.2583991,170.8294243,21.96243815
462,-24.15634929,-11.23692128,56.17376159,1.418533919,-11.7469372,2.039727718,211.7732612,26.93010834,-255.8884689,236.68492,0.073236506,15.43175004
463,-10.89816582,-12.08158066,-12.9226663,1.854481058,5.898720204,2.146664486,-144.1248496,24.54010911,-210.2761568,243.3353314,115.8439353,5.987450283
464,7.788753757,-12.24071692,-6.297410292,2.759574997,21.25688149,2.05959188,63.88068656,19.47279821,-234.5216965,243.9562805,-23.79983897,-6.27803499
465,-0.812765939,-12.87162602,5.216579882,3.300331911,15.0975033,1.906768192,47.59043841,12.95638811,-111.1720639,249.1582013,7.224901723,-22.25385307
466,-7.00579323,-13.3269741,-2.006825539,3.741766042,10.66494345,2.145821939,30.00801603,7.481438108,-49.73680251,256.106606,19.15231985,-41.0605209
467,-4.028232178,-14.11493834,8.448878493,3.420560232,9.868463394,1.631556474,17.36806889,4.401539429,-5.564767095,263.7505576,-17.89024361,-57.24581412
468,-5.822426727,-16.80828013,1.721539191,3.172830998,8.327295311,1.2328632,-33.31409146,0.657752474,36.18114977,267.7355326,-4.394745712,-72.36280012
469,-6.216670257,-17.50894646,0.84658733,1.821086961,7.794311246,-0.038231594,-40.72858508,-9.734999059,48.49888203,235.6536389,-19.61919249,-73.12151244
470,-7.742592577,-17.38136108,-2.272200864,4.477905205,6.51118558,-2.121076153,-47.99896821,9.311043767,53.91958206,204.9118883,-23.52834698,-71.35632314
471,-7.68152199,-17.98013165,-2.14146744,0.261240279,6.141469903,1.831413154,-40.63665576,1.5777441,44.17173418,194.131772,-23.73314911,-39.29400527
472,-6.963799265,-13.05017368,-1.869400718,0.682611584,6.574260239,1.189349109,-34.27811741,21.87090901,35.99998555,158.0634711,-20.08795293,-54.15648455
473,-6.953958846,-7.673309602,-1.566405586,0.519798604,6.073303294,1.17911856,-25.76060185,34.18187798,31.19930733,145.6099718,-10.49267704,-45.25776594
474,-6.857714319,-4.458176594,0.092998086,-2.460096764,5.606917402,-0.87360127,-13.94903237,57.02647443,26.0388709,148.69762,-5.706688958,-11.14301438
475,-5.91876,-5.900978275,-1.945181722,-5.56614459,6.328615857,-3.859529204,-6.570385722,103.8141397,21.27917228,156.048768,-2.220579509,34.71327917
476,-3.661457321,-10.71390271,-6.066233746,-5.659850187,8.855570087,-4.443882298,2.41515539,157.5263872,19.1901244,154.4691282,4.70638964,72.33973706
477,-4.54646744,-15.99555519,-3.832883619,-2.651496814,7.968183431,-2.064387626,12.48699791,190.9851192,27.80809565,138.6374361,10.47828303,88.83570451
478,-7.505146719,-16.8060764,-0.841783542,2.424181105,6.374929506,0.494971858,17.6020372,187.5387433,29.73507169,107.1230824,12.52700087,87.48206384
479,-7.522325292,-9.825269307,0.348532652,11.32965599,5.840676751,6.138724911,17.90794003,152.3818727,16.37403128,74.17741831,10.49919537,66.65811753
480,-8.115429802,-21.16224178,1.267497452,33.53828691,5.70052072,23.55171437,10.96984472,61.17997095,10.43615485,48.58654037,8.175198376,45.97005706
481,-7.515851826,-25.97347052,1.182261509,27.4458765,6.812404966,25.63927725,2.630063717,-141.0176422,12.32168922,-70.41706947,4.851499469,80.95591188
482,-6.51621763,-13.09251087,0.296352119,16.64536358,7.499516408,18.09270851,-5.433414548,-235.4523266,21.57330186,-157.7555122,-0.748703784,88.13404659
483,-6.862798655,-8.105440717,-0.338076788,9.121379817,6.925068752,13.07827349,-9.12671082,-276.6203832,31.67704377,-194.0615141,-4.920117801,61.35464958
484,-6.885092157,-11.70926418,-0.352514946,2.995509101,6.739168538,11.48549481,-9.394207998,-254.8258325,36.71146132,-221.4029532,-7.33443213,37.61800848
485,-6.661343619,-12.11064807,-0.558666831,-2.339206311,6.869999251,9.903473354,-10.17108492,-194.9600604,39.28489693,-256.2399579,-8.605253297,24.88278935
486,-6.705591723,-10.04346833,-0.853889953,-8.946858152,6.554446417,7.164131979,-11.25311568,-98.26417355,42.21431216,-275.1179274,-9.81440694,22.07241193
487,-6.663761728,-7.99159997,-1.398019456,-8.539614404,6.618041547,5.046880826,-12.30372658,39.95967262,44.95562352,-276.714614,-9.864688737,10.20323646
488,-6.499306219,-7.335061367,-1.847188506,-3.429502477,6.752612917,4.579436302,-11.83843707,152.1312051,47.69142382,-266.0720987,-8.015769788,-14.23342742
489,-6.808860317,-9.422007724,-1.572340999,3.228992903,6.48398706,5.944368754,-10.19657115,206.9617422,50.42969925,-251.9585477,-5.551036656,-53.20976269
490,-7.086652385,-12.62393004,-0.841476604,10.14036743,6.353101603,7.088524305,-9.308096752,220.266277,51.79733377,-259.0142434,-4.074202104,-98.302492
491,-6.984298492,-14.78362994,-0.710891804,17.20709757,6.51767086,8.766269049,-9.576978821,195.1789802,54.36814863,-290.1076941,-4.610211973,-128.7457884
492,-6.829126646,-12.44396363,-0.987459337,15.87616076,6.660166689,6.145299091,-9.488750318,120.3589286,59.33015451,-327.0373081,-5.131011483,-126.5063702
493,-6.866690209,-6.079604395,-1.014246149,10.57312357,6.612981519,2.679423508,-9.07643271,73.38638105,64.04998414,-335.7158665,-4.980242884,-117.7823246
494,-6.983274802,-2.307098405,-0.92424719,6.674554843,6.404159403,1.9640785,-8.250747649,80.6782567,70.32761019,-307.1664418,-5.12394815,-101.5906792
495,-7.084093978,-3.06675254,-0.651924471,7.311285123,6.349244121,3.087537776,-7.932090768,117.7289515,75.53378147,-264.8527546,-6.130642671,-72.90756911
496,-7.039772411,-5.66852737,-0.879131591,11.36208422,6.22215157,4.479112337,-8.900857323,145.4219552,81.15102197,-238.3730256,-7.262975003,-32.84587984
497,-7.051726257,-7.198894645,-1.090402611,14.76894283,6.23785314,5.577856544,-9.809533078,144.4245708,88.2603073,-233.1156581,-8.203435008,-1.333082195
498,-7.285675136,-7.152075188,-1.395276786,16.90497876,6.047547756,6.274950591,-11.17883224,105.5720166,94.82153871,-237.8282451,-8.17244303,35.98282919
499,-7.501070091,-5.966681073,-1.575036863,14.07129775,5.738815923,5.716550882,-11.41407736,46.85801367,99.53015937,-241.9253532,-7.109071132,65.31196777
500,-7.689351678,-4.822067472,-1.668191277,9.053151455,5.500204451,4.735857924,-10.52083564,9.146394929,102.9843409,-237.2225454,-5.132032184,87.79503837
501,-7.86781548,-4.707285407,-1.749168936,4.954601576,5.20984746,4.100068936,-9.911429054,6.898615012,105.0582996,-222.8794372,-2.553709172,113.6403485
502,-7.998069415,-5.671088847,-1.654423381,3.367305391,4.906778291,4.003738442,-8.318569467,23.95272432,106.3609617,-201.9976574,0.14681608,143.8834837
503,-8.178764126,-7.318061828,-1.565135863,3.065783605,4.643248119,3.972761673,-7.276493727,34.68954681,106.7060648,-178.0148008,2.656259612,171.5790828
504,-8.279766111,-11.01070293,-1.570889451,2.495732294,4.421238186,4.191075133,-6.797219714,27.7772781,106.27607,-152.9428278,4.548309133,190.1827186
505,-8.452397637,-16.10196457,-1.507801297,1.189550162,4.082736204,3.89855227,-5.28450306,3.919113566,105.0187248,-135.63841,6.135177915,195.18221
506,-8.547529561,-20.03414656,-1.412744337,-0.073337407,3.874080638,3.347797494,-2.820886758,-26.63307067,102.6416192,-129.9853553,6.560241481,185.5307201
507,-8.498718169,-23.6874749,-1.601487847,-1.633600132,3.725553733,2.799854855,-1.437869243,-61.74617738,99.59605728,-134.6437902,7.586986497,167.469223
508,-8.542880149,-25.60921974,-1.625861324,-3.375542046,3.600672106,1.089374547,0.140105226,-91.76504103,97.68166538,-151.3533296,9.231464949,143.7351735
509,-8.640476875,-24.11721235,-1.526039174,-5.49264205,3.394306157,-2.133399102,2.086824609,-113.7690658,96.00749203,-173.1722597,11.00107762,114.0597126
510,-8.614008071,-20.70388237,-1.460797536,-8.466665385,3.271735757,-6.053578795,3.473475957,-117.4231636,94.51190957,-182.6635868,12.40289142,82.59752082
511,-8.573953535,-18.37443756,-1.436368053,-10.61158662,3.30955638,-8.774344694,4.138489272,-101.9791637,94.67886844,-175.4498211,14.48230563,61.54015878
512,-8.388523065,-16.75675258,-1.508405075,-11.86179187,3.243725004,-11.58454736,3.891924914,-60.48243227,96.98643095,-149.423211,17.05804025,41.24127314
513,-8.219784561,-16.29496501,-1.643503664,-8.530922957,3.57806688,-12.18511946,4.557388779,-16.16737611,103.2380936,-112.4794649,20.08763385,29.93286854
514,-8.119171151,-15.16046161,-2.04324283,-5.538246205,3.855088819,-13.53142823,5.234436153,-10.51783008,111.9737669,-77.17326641,26.24452173,25.69269404
515,-8.154435672,-13.23228705,-2.13010172,-2.156039971,3.911895098,-12.67202127,6.990964522,-17.05444357,123.8059462,-37.49461402,34.43831135,22.65126141
516,-8.347105847,-10.74851832,-1.743690707,-1.804481943,3.812836355,-13.04971743,8.742793512,-50.00440104,134.2855621,-0.562428169,39.93855585,32.88769921
517,-8.533813057,-11.75517829,-0.980435458,-0.955118747,3.600252912,-12.48823049,10.03300056,-63.47444927,148.5307326,39.84179902,44.72556696,62.38935772
518,-8.319471197,-14.8537788,-0.802881231,1.774478536,3.739654513,-11.52118311,11.16113858,-70.03753127,161.8322741,68.71247546,47.85834752,102.2038377
519,-8.513090182,-19.38276765,-0.82889215,4.743658655,3.469874488,-11.81526622,11.81340306,-89.88441083,177.1735131,79.690376,49.47448537,135.8636666
520,-9.026662102,-44.61680135,-0.573479421,19.85165071,3.338196236,-6.663751167,9.598504514,-97.1524955,201.0033571,90.67561459,47.89048732,88.4386604
521,-9.531813287,-21.5798126,0.049580351,-12.20164821,2.789694296,-21.04750142,8.827130606,-407.3818139,218.6264539,-5.490376394,46.82722666,-19.52352212
522,-10.30885816,-37.83356443,0.059337648,-15.82506517,2.793863307,-22.39211021,3.745232068,-408.1406172,236.1737295,8.501689086,44.40089937,-102.3180753
523,-11.03624106,-54.65070794,0.028379865,-38.59183721,3.238649163,-17.298529,0.010482273,-361.3754977,254.8202274,-52.3065912,39.97259175,-59.18198014
524,-11.55618634,-20.58773907,0.110417932,-36.33075613,3.578691939,-8.692670182,-1.74424342,-102.687378,273.1134216,-173.125128,36.46696232,-52.92866661
525,-13.10920285,10.89065033,0.248258317,44.23239962,2.958123833,28.94007925,-1.391229607,123.0725361,290.4558959,-175.4128511,34.00328687,-127.5793603
526,-13.72295325,3.075285776,0.225194581,-15.82792081,1.990443707,11.88129398,-1.499523099,-170.6383419,301.2253356,-176.4676874,31.56122204,5.120153634
527,-15.00673485,-9.444767808,-0.054054744,5.213723887,1.815653645,10.69891889,-4.676490848,17.4476179,305.0602325,-71.23208353,27.47865895,-84.96482941
528,-16.40585179,-4.313324519,-0.613597043,-9.453790434,2.14767316,7.632150642,-15.55474622,-52.68006482,304.0949827,-62.51064552,20.09839791,-14.12917105
529,-16.64670497,-5.110075359,-1.264083266,-1.829775207,3.996849392,9.938968753,-30.21794865,18.03461856,303.2485171,-6.372797068,17.40172754,-3.497718747
530,-14.91370935,-5.864054183,-0.975347944,-0.804673806,4.799162881,8.589363509,-38.50805842,18.61448525,299.0347703,20.67405619,15.02029475,7.709122967
531,-14.51982055,-6.274935629,-0.579784398,-2.426233082,3.026433472,7.505227633,-51.42202545,33.7589836,301.4399232,43.34146851,2.766508012,29.7784061
532,-17.09330888,-7.811857177,0.565265057,0.101003598,2.371405497,6.850044703,-77.57598011,56.60663195,301.8761389,58.93213789,-27.81054107,43.78218565
533,-18.83892449,-7.741065574,1.894071288,0.53550714,2.877687289,6.655680803,-121.1175671,61.62736128,288.4915157,60.13109763,-69.10583647,51.45867257
534,-19.19190511,-8.438003544,2.205654862,1.977398126,3.530295617,6.460431205,-183.4379726,51.42239207,240.5343436,55.1966589,-96.09430353,53.43096475
535,-18.3527645,-6.209136944,2.83152417,2.875210078,2.249209462,6.819081335,-221.8008853,13.51484392,189.5329313,39.93063237,-104.3727049,50.49030609
536,-15.38505795,-4.08027333,1.555138895,3.85815769,4.367295829,7.487340336,-240.269708,-5.361208783,163.6601241,42.35087445,-102.4065686,40.10186506
537,-6.65986127,-3.86152403,-1.421915933,5.152305187,4.607385084,8.045741524,-266.748705,2.395093953,130.916511,59.47540881,-106.4981859,23.58468113
538,0.830326572,-6.135776333,-14.49890422,3.219130515,6.652787573,6.671107009,-276.1570625,7.76163526,100.7256211,76.30369606,-95.11467606,8.91119064
539,-28.34220472,-7.637938316,-41.17575263,0.695112718,17.88473993,6.460808484,-200.4341197,6.478671797,85.7874584,80.77006845,-95.15838466,3.853905492
540,-34.86355289,-7.546081824,-37.98740371,-0.017364702,25.67487129,6.431570044,32.9305171,7.33707662,-80.10534842,77.63251067,-202.8330287,7.241505524
541,-9.255841887,-7.519936867,-20.27098589,-0.115218255,14.69482128,6.070368128,189.8796409,8.502905442,-214.7380337,77.53753682,-237.1852119,13.63600579
542,-6.921798557,-7.137080165,-10.26405521,0.142100638,11.5626439,6.312538612,269.9198959,13.49745862,-238.2104898,82.44325448,-181.5263734,23.66866883
543,-7.854405708,-6.785004523,-3.4870585,0.692060051,10.15832458,6.709017178,281.567797,17.74968688,-256.000929,91.26391806,-120.2270006,30.63840951
544,-5.317164367,-6.805112123,2.195130889,0.966684131,10.57443489,6.655996684,257.2967312,18.36463497,-266.1110379,100.1873647,-76.6283635,32.21181512
545,-3.478654483,-7.028057896,11.6144436,2.406192521,10.28802793,6.409168328,190.3998526,20.52321511,-264.3372298,107.6313989,-58.91688319,27.81349129
546,-6.818996975,-7.336009872,12.09929338,2.745985199,10.27534126,5.961385249,53.95642623,18.01911137,-252.0530811,110.48656,-27.66832652,22.41911355
547,-10.6423671,-7.692492972,7.105661512,2.983397034,8.811100248,5.259233536,-71.30658662,16.4637037,-256.129488,110.7669385,-3.359266179,15.23965736
548,-13.227985,-8.215175822,2.036420416,2.854342497,6.910219438,4.630063994,-150.4963531,12.32649113,-278.3016723,107.9321219,19.22650602,10.31908862
549,-14.19658653,-8.392732605,-3.167188843,1.998783724,5.385898266,4.538780229,-190.8970483,7.508767347,-312.0606611,102.9943396,49.67621269,7.11839156
550,-13.47478234,-8.415736857,-8.206361648,1.2190832,3.871887092,4.574125541,-193.1529097,5.33183556,-345.0804626,98.57270398,77.06935113,6.16604167
551,-12.75863206,-8.426980236,-10.71779415,1.092044763,2.913633324,4.543495339,-173.1165087,5.660879477,-361.3343305,95.8641096,86.34706833,8.105126852
552,-10.75782561,-8.437521424,-12.09331021,1.29062844,1.937460733,4.560223857,-128.0245938,6.025194574,-366.614303,95.13175744,79.50349788,10.52338831
553,-9.404831094,-8.457309537,-11.96427657,1.586243208,2.048278999,4.423389577,-79.21186583,6.430097683,-358.3801047,95.12111596,58.40882998,12.41121808
554,-8.545921512,-8.456833908,-11.02750023,1.723560755,1.750326198,4.202405072,-38.23323945,6.027461363,-345.6790034,95.23354749,32.72555282,14.49243507
555,-6.711980404,-8.438398963,-10.12735756,2.024226037,1.852512744,4.072733185,-5.489965396,6.650365869,-329.3745972,95.70755423,5.621106869,15.04872875
556,-5.500139403,-8.524507082,-8.913186601,2.247245525,1.856777388,3.865560675,17.84506366,7.078514162,-309.1721562,96.06541101,-23.33549198,14.99343929
557,-4.618659147,-8.612885201,-7.391037886,2.122161137,1.758933511,3.464207304,31.19761033,7.408153092,-285.3246959,94.56696192,-52.8053847,14.52372417
558,-3.485062301,-8.872614589,-5.308429263,2.140700886,0.965187308,3.232523992,34.98037527,8.25900276,-256.9304336,92.40312938,-83.20885685,14.76408096
559,-2.036384867,-9.06523742,-3.303402742,2.100023131,0.041054227,3.031270166,29.66468096,7.589106229,-218.5889781,87.91044477,-109.751821,14.58993968
560,-5.9173376,-9.157279135,-2.895634712,2.076447625,0.811655147,2.795538842,13.83185266,6.370963341,-166.5829557,81.80627265,-127.7804735,13.40157983
561,-12.24383304,-9.160157551,-3.480408296,2.307739989,0.341280152,2.684250397,5.964957599,4.7062394,-130.2014275,75.40901949,-142.5651463,11.23302762
562,-15.54194364,-9.073297524,-5.06646579,2.586260176,-0.712640957,2.769136409,13.02118799,2.712075783,-120.568237,69.25710155,-146.751111,8.219559449
563,-18.12114389,-8.841064312,-6.834649981,2.932944653,-2.642461854,2.90837799,48.41467768,0.893788141,-125.1621636,64.61588232,-134.5900675,2.437590638
564,-20.38956366,-8.707523978,-7.474477996,2.808243896,-4.145635574,3.111322998,106.6610907,-1.996935009,-137.1785806,63.40217566,-102.283864,-4.342604359
565,-22.76852193,-8.682796587,-4.345075978,2.524348186,-5.184053762,3.206273494,162.7993793,-4.05935704,-152.6171391,65.17937741,-69.3963137,-10.50164695
566,-24.2149493,-8.679190302,0.870530224,2.092352985,-6.060961617,3.352037373,196.1449138,-5.428708984,-174.2287278,68.80046701,-51.84749089,-14.17707706
567,-24.41973127,-8.589639787,5.882154043,1.796647794,-8.297737734,3.4122911,190.9288435,-5.237321732,-196.027797,74.26197407,-56.14597063,-15.55964047
568,-23.37667063,-8.527954254,8.90735647,1.435476474,-11.81172662,3.360453943,147.1578472,-4.166514532,-206.5338745,83.05824526,-68.73627557,-12.89521124
569,-21.37105898,-8.458296077,7.457102091,1.23575755,-16.38097508,3.486076655,85.72594812,-1.298609882,-196.5416432,94.5921831,-74.02697729,-7.733157742
570,-18.42040893,-8.385063633,6.823007092,1.377702266,-19.83757304,3.547288683,39.70191243,2.197620477,-169.0217428,104.6892032,-78.23206088,-3.713034809
571,-16.07742418,-8.270022983,3.949498374,1.397130453,-24.42499661,3.489582194,1.601373172,6.023702495,-132.1365882,121.8542899,-74.65645064,1.467724907
572,-15.02939942,-8.211894524,2.662079063,1.777772605,-28.44506108,3.486062741,-11.45688345,10.66063843,-42.03777787,142.3134656,-81.22441339,6.545565772
573,-16.75855106,-8.57489435,0.028251435,1.455428946,-26.14504472,3.157629701,-10.21332651,13.69691012,83.42077253,162.4777689,-84.22993227,12.30083252
574,-18.38676369,-8.870479724,0.103187153,1.061579594,-23.13212366,2.808348128,7.44041799,18.22973797,128.1821476,179.1558461,-88.7173495,18.31680713
575,-19.90300981,-10.2637313,-0.688507555,0.740895454,-22.4442231,1.802312016,30.3061214,25.95946142,134.9978421,193.6035102,-86.6817747,23.45247177
576,-52.3969273,-10.04276012,-28.35996246,1.27210084,-23.44278673,1.632106656,20.17149406,40.41025061,203.9328712,207.5563171,78.65955489,24.54986241
577,-32.23634865,-10.1798123,39.19056921,1.369695432,-16.52112299,1.680676392,482.8215431,52.52933255,-3.135282041,221.5120628,208.3981807,27.5593831
578,-50.8465654,-10.812424,34.56368951,1.666978361,2.382129073,1.608808784,325.2862522,55.0716556,-54.82207892,228.3377018,208.1777607,26.86361161
579,-8.38085543,-10.55898479,23.39508569,2.203734416,13.12305388,1.156876305,64.31796153,49.69402125,-263.3140823,232.7619373,52.95147896,22.39022166
580,5.11875886,-10.95001037,-17.53256044,3.218301172,19.0310094,0.447084457,-46.27419208,45.5589151,-266.8134793,237.9730076,68.6629623,14.93676622
581,0.293480809,-11.25472845,6.552352671,4.252885136,14.65995738,0.168674937,108.687776,38.90608241,-191.8906719,238.1328021,-1.744021384,0.354137253
582,-5.539527605,-11.59192,-1.655007745,4.834836668,12.16739165,0.578617223,32.68947973,32.86696004,-106.8162355,237.1749959,26.34864254,-19.63331419
583,-2.455782156,-12.21790669,8.299453164,4.440113303,12.31910255,0.761405547,51.36284192,28.55513683,-61.59961624,240.2272506,2.762357121,-39.95682494
584,-6.01960108,-13.85171346,0.517999119,3.908081024,9.706271951,0.210449934,-11.98416519,19.25967111,4.577253011,243.5281665,-1.668711508,-56.75194993
585,-5.818606286,-14.84007156,2.073610038,3.401856354,8.837207303,-0.253847856,-15.17151358,13.52647387,24.55836562,241.6671608,-8.28444626,-63.09727309
586,-6.418832889,-16.42399632,2.266514186,3.168570368,7.952583284,-0.517354204,-35.42593875,5.088414523,47.16281827,226.3176282,-20.21294598,-66.90816139
587,-7.47375501,-16.79291623,-1.252338055,4.430775734,6.964174244,-2.538017397,-48.80934852,12.14023816,56.80103799,196.9793705,-26.01841055,-70.49277249
588,-7.358094789,-16.76543245,-1.828508926,2.339768527,6.494857135,-0.39261928,-42.81858559,21.46779248,52.12369494,184.4724543,-26.50590481,-46.61920168
589,-8.095193268,-13.84836004,-2.577252426,2.014790036,5.282540211,0.762786131,-38.15827219,48.49398025,45.5304735,162.8233488,-19.8684593,-49.01552002
590,-7.277631625,-9.904756141,-0.857050427,1.238619787,5.417670968,-1.092981137,-25.95140695,54.0664972,32.65024576,139.3960659,-12.8659456,-45.53526506
591,-6.334644165,-9.420105692,-1.308890526,-0.324238358,5.653866656,-0.919880439,-15.33856759,77.05007164,24.55252995,134.4236788,-7.674824367,-19.0797578
592,-4.926420967,-10.8671171,-5.079072941,-2.458084141,7.085547387,-1.508748958,-4.851777829,117.2660527,19.18119396,124.7282294,0.094960689,24.91807217
593,-3.566661498,-11.99244289,-5.520385017,-5.024309405,8.741539732,-1.924882516,7.818895527,167.4471111,19.67397112,110.0955942,8.213239535,75.65437673
594,-6.485718634,-12.71884531,-3.454805204,-5.323851693,7.156140784,-1.35791734,16.58056112,215.0260179,29.22838587,103.9622249,15.38842174,106.1964681
595,-7.45942517,-14.21163303,-0.008319347,-0.335339144,5.982928733,-0.581440451,24.41541364,248.4108965,19.94733031,96.09504429,16.95864646,111.7981689
596,-8.244989114,-13.34158248,1.794225311,6.871427721,5.262263546,0.813605948,18.67674661,246.3970082,8.576655677,75.35540035,15.28074875,99.61150675
597,-7.973344885,-13.29934403,1.995371547,21.49478395,6.300460058,12.45634624,9.226680233,199.2087071,7.058226551,49.5856476,11.01701576,69.86867115
598,-6.52730206,-32.5463639,0.732649279,27.86620395,7.644057551,25.85005024,-2.617024385,38.46465624,15.40787754,-31.33596159,3.196893727,57.47681372
599,-6.604223784,-23.50583661,-0.05239318,20.43693309,7.360366261,21.14186619,-8.349400457,-81.80031716,29.81934501,-149.0909036,-3.523146909,57.48511518
600,-6.633886801,-9.113774621,-0.227605601,11.94417141,7.138062137,13.64438601,-11.02108852,-166.5864411,40.47124904,-223.8482458,-8.236153292,30.00796572
601,-6.653154699,-9.382551437,-0.661754518,6.389385571,6.896781727,11.57087073,-12.6543014,-190.2915133,49.08309365,-240.4873981,-10.94161073,-2.932617989
602,-6.720647718,-10.71396491,-1.23798127,1.041326203,6.618551511,9.863742721,-13.4174267,-163.8489263,54.33701568,-264.7018152,-11.28152071,-20.64704103
603,-6.858755131,-6.979560566,-1.479166049,-3.412522914,6.301655064,9.13062589,-13.33636699,-96.03130803,57.07572202,-278.3423559,-10.10580349,-22.69995299
604,-6.887444466,-2.779133357,-1.477112025,-5.750715812,6.299009223,8.525586229,-12.51036682,4.594445108,58.80131745,-267.800987,-8.627222174,-12.31728955
605,-6.867639394,-2.985639119,-1.786429954,-2.093049777,6.376959149,8.754607202,-11.91154473,109.7987666,59.86421545,-243.0495667,-6.604065488,-6.968209098
606,-6.935677583,-5.998186606,-1.621594641,3.65385988,6.266782583,9.426258407,-10.62752271,175.8905301,61.22565227,-226.6987752,-4.026702796,-9.859326008
607,-7.146569626,-9.847730023,-1.110661196,10.33864113,6.168894303,10.13617009,-9.191931563,194.5677981,62.83604934,-232.1159988,-2.607029508,-25.72656329
608,-7.185140885,-11.15094679,-0.919283059,16.26284653,6.225774257,10.43575536,-8.345294705,163.4176412,64.99137002,-258.9685443,-2.590919562,-45.99704857
609,-7.111323481,-9.989116903,-0.923237571,16.79961974,6.26885425,9.172320553,-8.185041173,89.97020378,67.56435899,-286.8541975,-3.063912527,-56.28353329
610,-7.157070145,-8.611781774,-0.839725432,13.76750958,6.183068868,7.715054805,-8.411884209,24.232429,72.52729748,-301.3776005,-3.952399154,-60.05943801
611,-7.407784485,-8.095987656,-0.724961053,10.01657992,5.97039825,6.469103597,-9.019723389,-6.429395045,77.49220153,-307.3029978,-5.391994255,-55.00541503
612,-7.513168896,-7.39983871,-0.625330535,7.826075574,5.843923665,5.5630368,-9.879193207,-7.400826087,81.02600178,-308.8043756,-7.329201194,-40.26957413
613,-7.552016569,-6.867162275,-0.90634603,7.805744867,5.735276832,5.271718967,-11.70938146,5.6565983,84.55187685,-305.5943679,-9.0267251,-22.23655013
614,-7.580230132,-6.491289911,-1.251956059,8.083451483,5.587271737,4.971118606,-13.28280532,12.03024365,88.1949473,-302.6844417,-10.23407402,-9.95000527
615,-7.680795256,-6.488699883,-1.339352096,8.351939136,5.434130673,4.687552667,-14.4187927,13.96706929,92.19570909,-296.8826709,-11.01009802,4.160529919
616,-7.780044294,-6.351586638,-1.843969133,7.793836912,5.133848113,4.074146901,-15.74983826,9.135337971,95.16650027,-289.4819155,-10.08368893,16.90811837
617,-7.870579571,-4.636332269,-1.825794906,6.082586356,5.06697256,2.758857102,-14.13244153,4.672665006,97.55396084,-276.9930467,-8.597730105,31.06867058
618,-8.052245247,-3.867211877,-1.77955756,5.115484888,4.68618482,1.956142613,-13.52831887,9.276453004,98.91359345,-251.0689398,-6.328696707,47.39736867
619,-8.302972997,-6.411196776,-1.875544854,6.601266146,4.18122618,3.174211596,-12.97688628,14.33915414,98.54040784,-216.7490281,-4.008701271,62.84602017
620,-8.453817677,-10.72965262,-1.742825608,7.371172765,4.009358612,4.392405223,-11.03641751,-0.52918913,97.22598387,-192.2187003,-2.420200254,77.47752142
621,-8.538302598,-14.4199978,-1.580548611,6.85595697,3.866116901,4.580572759,-8.844418375,-28.71869838,94.06165452,-182.2889763,-0.841052568,87.20128646
622,-8.569953935,-19.29173343,-1.499307452,4.950130712,3.815764835,4.951498314,-7.213854123,-49.64415943,90.59907164,-180.2254247,0.245498676,91.52741066
623,-8.542042956,-23.26366118,-1.628498915,1.720954661,3.805318074,4.055842558,-6.258822081,-58.21692765,87.67031161,-192.0848255,1.270949495,98.24473709
624,-8.536161816,-23.54158207,-1.712374246,-0.842225943,3.791940585,1.122712453,-4.820797613,-51.30896881,86.17792834,-211.8441301,2.306764987,111.0856547
625,-8.575581185,-21.77924943,-1.554411758,-2.222889124,3.700911485,-2.761114464,-3.640287491,-34.09537326,86.00029365,-220.5598352,3.043658314,123.2745903
626,-8.581167891,-19.55975652,-1.398383751,-3.821403681,3.565538687,-7.454206529,-2.844257161,-18.19195215,86.30287965,-209.1432962,3.171100848,126.7329481
627,-8.500774561,-18.63337651,-1.274970408,-5.589232929,3.490058243,-11.27958343,-2.556038238,0.845579718,87.80113791,-177.4283624,2.75363275,119.5956156
628,-8.470282481,-19.35822421,-1.444958742,-7.354374755,3.517596432,-13.57909016,-3.000775168,22.97384751,90.96522916,-134.8557279,2.586438643,107.8981251
629,-8.390557787,-20.21888025,-1.590466377,-7.258637675,3.632433765,-14.28603869,-3.252221878,38.96447099,96.51373528,-102.452574,3.166170048,97.81564067
630,-8.244813328,-20.11219584,-1.778200615,-5.940922487,3.621246829,-14.79732795,-2.952934641,41.55684869,104.2725749,-64.31611943,4.127221876,81.10682075
631,-8.037914073,-19.81244356,-2.181280497,-5.263249831,3.760560248,-14.58014778,-2.893061013,19.91874044,114.5755184,-29.09267171,7.970593626,59.22399526
632,-8.02320015,-19.95255092,-2.265163128,-4.770247643,3.841344795,-13.30065133,-2.444540521,-13.84270787,124.1584082,-1.839923135,12.54415727,36.68694871
633,-8.043524831,-18.97269988,-2.212723791,-4.894930783,3.91598623,-11.99456733,-1.97290057,-51.3788127,138.9842353,9.631717952,18.79572734,20.96547844
634,-8.064175357,-16.59109627,-1.982862195,-5.824320654,4.069157243,-11.35535272,-0.799657608,-81.4017551,156.4485256,12.13687472,24.27194253,17.32810112
635,-8.535494842,-14.32666439,-1.359709684,-5.688337261,3.782044144,-11.21033102,-0.212201803,-92.76248847,176.1271652,16.28778931,28.72033925,26.75160205
636,-8.847836485,-13.62987335,-1.029679736,-4.087162746,3.480019033,-11.32010038,-0.216567524,-91.00458364,192.9512134,25.37018267,31.13543812,44.79491253
637,-8.991842815,-13.56585298,-0.767144737,-1.24841333,3.151943167,-11.8373179,-4.290026786,-89.7997688,214.4923447,37.55631769,30.50661517,66.52550291
638,-9.397008562,-12.3340006,-0.942523218,1.607857385,3.264686072,-12.90864579,-7.916714073,-99.27544485,236.4065928,54.71752116,28.35590645,87.13882089
639,-10.71375775,-45.02073336,-0.482215734,21.53344821,2.199286755,-9.242673703,-9.933605933,-79.92990829,254.3870563,104.1597946,26.43439185,31.52935615
640,-10.96871027,-30.76506767,-0.01892074,-21.27254096,1.381671227,-19.56784196,-14.20700667,-466.6249177,266.5660438,30.34524897,23.73711363,-121.1818478
641,-11.68164794,-54.23175211,-0.042100462,-49.0473229,1.492562041,4.259809991,-20.3367487,-367.4568064,277.8043694,-31.53570474,17.66869959,-136.9297796
642,-12.82426234,3.615017932,-0.434977474,-17.82418869,1.475280376,7.100950803,-21.74856506,-24.8764592,286.3413558,-237.9963608,9.470058209,-73.20655484
643,-13.06215274,12.79975739,-0.905227874,33.99470818,1.121637979,26.13097826,-20.69336606,102.552769,291.7065894,-188.7370675,4.011576351,-115.243392
644,-13.33863425,-6.168593221,-1.160445284,-12.84014569,1.099858395,6.062524661,-22.85087707,-162.9450086,295.4755812,-132.1859039,1.520391076,-23.67476096
645,-14.14744701,-8.965639612,-1.734087445,-0.120764016,1.162524263,9.106648645,-22.70269039,-2.66457004,296.1015972,-72.18226255,-2.015807183,-64.92117079
646,-14.98772901,-1.887130954,-1.245712619,-10.37869526,1.498541766,8.928502497,-16.70869145,-22.44302682,290.4454549,-45.90518621,-7.148029022,-7.241607514
647,-16.85321596,-6.207945747,0.146849973,2.059218157,1.643307074,9.743107096,-46.1546596,33.61404569,290.0815721,14.61292533,-14.54875316,5.586751862
648,-19.09182447,-5.820852886,-2.46782578,-1.242902382,0.864291288,8.474368885,-74.53008212,16.74978592,279.3943644,31.14206751,-22.30840621,15.14212979
649,-19.89296632,-6.896401335,-1.661958464,-2.419408399,0.906486546,6.892265794,-63.55779355,37.13069923,247.0107984,54.214843,-34.95568783,34.61345284
650,-18.5744131,-8.044901701,-0.810670601,1.714743106,2.504606786,6.552332124,-76.74496134,57.78202593,232.8386892,65.03123146,-50.84527975,46.1301857
651,-15.4424637,-7.596386889,-0.344794223,1.132513367,5.743838117,6.371158102,-101.8683542,49.23639343,210.7910998,58.28698036,-62.07291021,48.71126392
652,-12.48686404,-7.695646977,0.508983645,2.392936303,5.847834531,6.434265448,-133.6510094,39.55329486,179.754683,52.00478368,-74.78599896,43.25974578
653,-13.54468736,-5.889655953,1.58279941,3.285882247,5.904200524,7.159185305,-168.6274326,12.75182742,183.3816695,42.27407673,-85.18040998,37.07338212
654,-16.35694244,-4.895421427,0.50317787,4.004757204,5.539998679,7.209344233,-210.2746684,0.867874862,174.7006347,45.86280763,-100.3143994,25.73940122
655,-11.63473926,-5.593034389,-2.507734016,3.866266158,3.54027165,7.129189721,-238.073041,5.255322547,140.9637985,59.8702049,-108.2633303,12.76938156
656,-4.584421085,-6.921357045,-17.46338939,2.27487956,5.384916463,6.723803397,-248.6645306,4.325030176,94.07410575,68.01408415,-93.37857445,2.92471605
657,-44.47868759,-7.237332841,-36.73799326,1.075622944,24.77923853,6.873401709,-107.8443153,0.642811749,17.82631797,69.00743703,-91.3362078,-0.494965872
658,-24.87480904,-7.041940675,-25.46378484,0.334351376,19.85404246,6.737373956,93.63483705,-0.648201193,-208.3916212,70.62081191,-125.4553738,2.121941373
659,-7.177195952,-6.792286338,-13.88935751,-0.177314104,13.37219423,6.548534911,203.0993764,5.358707708,-283.7804889,80.08554048,-82.77554305,10.55789469
660,-7.573980161,-6.506054306,-7.540057714,-0.226856855,11.96004427,6.770939387,232.937013,14.75283004,-294.3382302,94.55482228,-23.00004383,22.26984896
661,-6.565462798,-6.528774658,-1.825422309,0.145541203,11.86721218,6.673875583,216.9642802,21.06342669,-303.1290436,109.7652164,11.30462524,32.62492071
662,-3.681156531,-6.754386924,5.187519438,0.994888199,12.34413966,6.532810608,157.5011821,24.60065031,-299.8232144,122.9875342,14.77499698,34.95784127
663,-3.114926928,-7.050580117,7.542796443,2.183077146,12.47406556,6.327014353,46.53366492,26.32764156,-278.7237441,132.4017738,8.527265607,32.87325077
664,-5.200700214,-7.476727589,3.331905193,2.837350573,12.00340321,5.788615969,-71.16260919,25.07021854,-259.6857879,137.1594182,8.463329316,29.65408871
665,-8.763222302,-7.905770494,-2.621155701,2.805908247,11.04803547,5.003991049,-151.3127973,19.94327441,-263.2721574,137.5074464,13.75329578,24.70442813
666,-11.91466429,-8.275854208,-9.096856737,2.652249691,9.978561522,4.503536042,-179.4113171,15.84563582,-293.5366964,135.3349519,27.30945832,19.1298216
667,-12.00114245,-8.538606261,-12.09270868,1.885356425,8.764804602,4.141869922,-165.9755575,11.14907157,-325.8539001,131.4118284,38.54120507,16.80923127
668,-9.759597988,-8.764697667,-12.40384556,1.351453457,6.862767612,3.897384328,-126.5938358,9.4279894,-360.2743898,126.9226895,49.14717059,17.0105065
669,-7.011258796,-8.811672691,-10.21008894,1.738407996,5.745058279,3.853832044,-93.17956476,9.137389122,-372.5376573,122.545796,47.64327098,17.32428226
670,-6.231537048,-8.812299611,-8.748724772,2.162524883,5.29863804,3.596243065,-77.29850223,7.571117613,-363.1675843,118.3628813,30.73841461,15.94576461
671,-6.734116278,-8.843910425,-9.308237926,2.493562149,4.689150712,3.398873138,-67.11664367,5.684580113,-343.893209,114.6614383,3.059312032,14.52177854
672,-6.4427869,-8.771798847,-11.23498962,2.333481952,3.980780501,2.991128424,-48.06643676,3.14886033,-325.3847563,109.8796525,-26.53692094,14.05119823
673,-6.544878997,-8.902724845,-12.42356069,2.298575259,3.862385784,2.887991188,-13.44573466,3.379932967,-307.4118176,106.8829301,-51.66996563,13.54266633
674,-7.646791247,-9.095591919,-11.07442986,2.353338124,3.941973942,2.649687304,28.49679069,4.080445572,-290.7401876,102.0248557,-72.62606315,13.10277528
675,-9.265842013,-8.976729446,-8.158072978,2.628497583,4.189711534,2.555324258,60.09605457,4.092958224,-275.9338754,95.61983625,-92.41921877,10.79730229
676,-11.0101443,-9.080428537,-5.497399024,2.686040303,4.334818246,2.669169067,72.61367673,3.620735112,-262.3115068,90.72238924,-113.466163,7.132510164
677,-12.78457054,-9.21027006,-3.157496465,2.445214086,3.614366874,2.532939083,72.22795875,2.655059519,-249.3786813,85.70693306,-132.9889464,3.590951816
678,-14.09724484,-9.291823653,-1.583565027,2.004335293,2.166061958,2.489626607,69.26780412,1.478518669,-240.7255797,80.38386018,-141.9875546,1.995766389
679,-15.85521407,-9.177602383,-0.16468837,1.726830253,-0.501235799,2.382298684,62.96357032,2.21083615,-229.8436243,75.03961947,-140.8558453,2.94620694
680,-18.52232661,-9.030193357,0.61684806,1.800225091,-3.016950587,2.504232597,55.64127288,3.162850991,-216.3205261,72.3873272,-127.0170796,5.003375441
681,-21.79575427,-8.928232584,1.110323729,1.897127189,-5.510330054,2.602733596,51.66288077,4.001086386,-203.7033484,72.3154202,-109.2614824,6.702728525
682,-23.97661734,-8.715037474,1.670353676,2.203141495,-8.431141011,2.758106065,50.95063681,4.016787431,-197.3799628,75.07278677,-93.66315006,6.836636129
683,-24.91778042,-8.558475455,2.308171654,2.341339482,-11.65810412,2.905856097,48.98187501,3.573755326,-190.4392499,81.67455238,-81.60748975,5.916968104
684,-25.61800541,-8.64441616,2.467256087,2.414320515,-15.3210331,2.80083303,42.52118505,3.479690801,-174.6095936,90.98321851,-71.78045264,2.686112065
685,-26.06857657,-8.574358284,2.766159569,2.366285963,-19.02501189,2.707834208,32.4776471,3.291559291,-148.2363098,101.1960642,-68.80767057,-1.496312931
686,-25.69019389,-8.606269895,3.06912214,2.398066994,-21.74026142,2.842888593,15.81757498,3.44951611,-118.6039083,114.3980345,-75.36918127,-4.138097877
687,-24.20547209,-8.617298733,1.599425823,2.189895077,-25.38303019,2.842353209,-4.654641457,3.117747215,-95.49515246,124.838586,-90.83624414,-5.506265768
688,-21.32874724,-8.82734984,0.405590093,2.052496318,-28.92990046,2.866766546,-12.72145476,4.912077454,-47.70284351,139.0415698,-113.7366565,-5.939096877
689,-19.47504459,-9.337066288,-0.730674849,1.487016483,-28.87223226,2.429981456,-6.407513479,6.503815954,30.95210316,152.3976199,-130.7802059,-4.500931372
690,-18.44044894,-10.1387802,-0.74168186,1.110249311,-27.25108024,1.843310764,11.25396632,17.17557331,75.31178234,167.694774,-137.3452934,-4.799384275
691,-16.42678282,-9.541218,-1.178892323,1.429062972,-26.38845062,2.156421682,44.34843561,28.03478944,106.4201848,183.945472,-132.7443697,-4.036865698
692,-23.48639388,-10.02179152,-8.629042207,1.449659498,-26.60822227,2.070570873,71.97642466,36.56932061,165.4669116,201.0922054,-92.72759286,0.003837527
693,-44.33947427,-10.21181809,-19.2058846,1.33025411,-25.66135678,1.899427598,219.8335424,42.36986724,188.1350008,214.6119547,172.0225388,0.37215996
694,-15.54697857,-10.24947177,47.89155146,1.297584324,-23.60101786,1.316799705,670.3535693,41.0529273,-55.85635421,226.7850997,278.4832408,1.438317744
695,-58.27774187,-10.59308799,9.697050225,1.880175934,6.488133026,1.088414907,427.2106473,35.06358896,18.57766479,237.5345441,281.822625,4.277258439
696,1.216066866,-11.00217012,65.80281697,2.283707048,14.82319818,0.228019895,292.5180132,27.68033185,-377.8344165,243.5073964,-59.70469781,4.255945052
697,9.942517215,-11.30524284,-33.95892803,2.861218796,20.48969683,-0.454470752,-173.149281,28.53322427,-264.2625696,244.8376685,183.1001314,0.866532514
698,0.081578886,-11.95725936,6.403595313,3.091420913,18.48332319,-0.896979162,188.2242108,29.90367932,-174.9496632,242.6991032,-12.02744573,-4.999096215
699,-7.165474645,-13.53296597,11.09640573,3.162682936,10.87041896,-0.677515393,72.91165173,30.22128124,-86.02028062,238.177767,26.40651009,-13.11537692
700,-3.438432545,-15.59803908,4.918938685,4.167206253,10.73759283,0.410995779,0.243698917,26.01267205,-18.48675436,228.8418367,9.182756964,-25.46900104
701,-5.751389212,-17.01554322,3.458616448,5.008580642,8.836083274,0.842598268,-39.39045532,13.74271009,47.43499826,219.5731993,-19.98536468,-43.73038693
702,-6.515129515,-17.93272013,0.621898282,4.893550139,8.094285056,0.144233918,-55.14437382,2.892656034,65.53145321,207.5983509,-17.14673656,-61.77075822
703,-7.975417907,-16.70804171,-2.750307345,6.789213746,6.750338082,-1.511771171,-67.80654198,13.42285974,73.38270271,186.7420761,-30.58928702,-75.29067014
704,-7.703364199,-15.26923692,-3.852042936,1.395069307,6.030417152,1.263160971,-52.70515549,15.58018984,59.17744906,184.7088116,-27.48774058,-52.54150265
705,-7.464626195,-12.56484085,-2.044820845,2.651643337,5.766480055,0.445905739,-36.4849508,50.57205376,46.2676032,168.0819151,-21.13850096,-60.54946419
706,-7.295262032,-12.76607824,-2.116572247,1.530933758,5.305369384,0.06037381,-27.02600605,68.32844875,35.48156329,158.0981513,-9.192269843,-46.99537432
707,-6.423130591,-12.17871053,-1.019534036,-0.222099505,5.523671808,-0.046085079,-10.62631267,93.64465936,23.5284205,140.3452894,-2.836777203,-21.02078358
708,-5.299609408,-10.93204123,-3.850548966,-1.229673658,7.088484967,-0.131695541,0.57383088,127.7047889,15.7214344,123.0930459,3.823686541,3.914233485
709,-4.221067752,-10.28561649,-4.703351704,-1.927874247,8.956753131,-1.041458359,11.3807109,160.6638313,14.36274795,114.1860688,10.45792304,27.6153863
710,-6.402195938,-10.14678909,-2.31722069,-2.405883825,7.589924188,-1.104891013,21.51357715,197.4200613,18.44731314,117.4996176,15.53289402,49.53224174
711,-7.112780798,-10.61871201,0.286337977,0.976367516,5.835730322,0.797318387,26.07469684,237.8705655,8.721213255,114.8042391,17.94020603,70.28130562
712,-7.946477645,-10.25250011,2.284199321,10.00506904,5.783318687,8.099961156,16.22608112,252.8819587,4.745849379,96.21013608,14.39320274,81.67870536
713,-6.902572579,-33.38026777,1.623065475,28.85933251,7.508589743,26.66652894,2.797448543,174.8106308,10.74011133,35.12805559,8.627882965,98.31812038
714,-6.373324014,-27.92429818,0.002760055,21.37852042,7.710236512,21.62156665,-6.630577256,8.840471678,25.67488529,-141.7530508,0.795157279,137.0071857
715,-6.731384327,-12.87882103,0.114227299,12.34024562,7.16493481,11.65856087,-9.017246788,-98.15131879,36.99080498,-234.7600876,-4.584236264,112.5361263
716,-6.420949545,-10.72162111,-0.479374529,7.824447078,7.191543427,8.658940654,-12.25753852,-153.0126582,45.12115595,-256.6506406,-8.093322361,55.74774388
717,-6.64325898,-10.20979107,-0.901548239,4.17541425,6.91292479,7.639179875,-14.0869597,-164.2860475,52.58405397,-269.5395176,-9.158069409,15.10906627
718,-6.624849359,-9.549776274,-1.119396423,-0.392906249,6.722004491,7.484487424,-15.3798334,-141.3532133,56.45671243,-275.2414946,-8.958867821,-21.85521719
719,-6.863903699,-7.695982832,-1.227302795,-6.28248363,6.271348963,6.125031989,-15.19926112,-80.41163876,59.20275764,-272.2851465,-8.637240484,-27.00868134
720,-7.084006203,-5.170546828,-1.145887218,-7.933954214,6.169783499,4.452229927,-14.53232967,17.99122022,60.04350682,-259.8197036,-8.690458425,-28.51574946
721,-6.984242524,-4.387919065,-1.375127142,-3.665702202,6.294898201,5.378753673,-14.02801855,112.0959088,59.74368123,-235.0997703,-8.140477211,-43.51246545
722,-6.926541294,-7.03346793,-1.268998974,1.408156582,6.398083456,7.441130305,-13.26605953,166.2058391,60.57493318,-212.5504251,-6.911434461,-64.56297372
723,-7.087179049,-11.51224603,-1.162872851,7.836308067,6.296893351,9.35216156,-12.2024636,188.0682827,62.36364372,-215.3108259,-5.675575753,-88.01535093
724,-7.203629353,-14.04694501,-0.948249027,14.5433476,6.18819874,11.22781695,-10.72635045,169.5406561,63.86108544,-248.3791097,-5.04990326,-100.2009848
725,-7.210197423,-12.29184729,-0.79238733,16.01565889,6.179821193,10.58875508,-10.12814384,103.3376652,65.41954491,-290.5858354,-5.282486092,-94.08829279
726,-7.221456483,-8.740236789,-0.792415163,12.89851578,6.090339816,8.837651855,-9.42517398,39.38381159,68.53485245,-318.5374529,-5.933043387,-87.19060842
727,-7.341510332,-6.251088409,-0.887315845,8.489854892,5.995868807,7.321293291,-9.515000791,10.17783234,71.34663352,-327.8950501,-6.588949957,-80.53162665
728,-7.365521388,-5.502786928,-1.021840328,5.612272216,5.907349977,6.651450222,-10.27037557,17.42034111,73.37691828,-326.0629755,-7.130253917,-69.50164961
729,-7.419910963,-5.221806774,-1.216710082,4.745431439,5.821376571,6.254578558,-11.07990706,44.71551781,75.70308964,-323.2802619,-7.364916003,-52.27572951
730,-7.466717119,-4.467049495,-1.401809115,5.89128394,5.667192067,5.962279516,-11.26647949,73.50961907,78.62603759,-319.5688907,-7.043963357,-29.97357811
731,-7.667285653,-4.076889523,-1.492762131,7.176559438,5.468426594,5.731662383,-11.31935252,87.5177933,81.4867263,-314.0244177,-6.295459407,-12.1311318
732,-7.822273962,-4.635524511,-1.580732157,8.529478094,5.244206606,5.711507026,-10.60854991,93.661665,82.67264748,-301.929426,-4.637343485,11.01834274
733,-7.916798025,-5.641620813,-1.763993553,8.801156284,5.075434483,5.712544127,-9.508850439,85.48293852,82.66120041,-288.5651844,-2.312786607,34.50979239
734,-8.061588548,-6.672990261,-1.69589291,8.650405005,4.83829351,5.884870525,-7.729234972,70.07544053,82.233966,-275.2975019,0.256686664,60.8078732
735,-8.169264563,-8.037274634,-1.73289394,8.682038419,4.600007923,6.447582788,-6.989696288,51.37657469,81.02531989,-261.2988139,2.633840589,88.1914657
736,-8.30668321,-11.29846634,-1.669478981,8.150559562,4.344160725,7.441229827,-5.644467084,31.04915352,79.04640216,-245.9761963,4.704181539,116.2955991
737,-8.434404949,-15.71793479,-1.507760459,5.981809385,4.228728525,7.06566202,-4.871073808,8.562761647,76.95122168,-237.1258725,5.916660386,146.0778455
738,-8.512444838,-18.84374382,-1.350326217,4.024474646,4.186720549,5.673387902,-3.620138854,-11.9288918,73.96744878,-235.6429298,6.576900727,172.0472853
739,-8.464134668,-20.99294356,-1.215444248,1.950153275,4.223729271,3.812071991,-2.457097357,-31.32626546,71.64730591,-234.3464651,6.324878583,185.1267634
740,-8.350369407,-22.00881504,-1.360447704,-1.05420799,4.263630337,1.005237487,-1.972621649,-48.33811987,70.63738632,-229.8376812,6.016150517,188.0189017
741,-8.233667574,-22.25234206,-1.548591217,-4.859536689,4.299204241,-2.438508588,-1.163689934,-53.3779042,71.77139349,-217.1542056,6.758791891,186.4462152
742,-8.191455703,-23.2968006,-1.452069399,-7.712021807,4.2564986,-5.408177294,-0.167902058,-43.96817783,74.45651341,-195.3507953,7.877346455,180.7781901
743,-8.170463167,-24.34388624,-1.394214004,-9.540171816,4.235067225,-8.289258494,0.090779528,-29.55050656,78.6297077,-170.171848,9.062021005,165.6974802
744,-8.098102513,-24.48634807,-1.311892053,-11.96417973,4.333882558,-11.64779913,0.64574756,-15.73736028,84.7164006,-143.2134662,10.19787351,142.3703156
745,-7.990555487,-23.956227,-1.471241727,-13.86956014,4.272706999,-14.5619864,0.489695325,2.69460626,92.64151249,-109.1141008,12.43966693,112.6626037
746,-8.049582798,-23.66905481,-1.318400661,-13.04826708,4.252087134,-15.80516091,0.929966253,17.15836358,103.0204603,-78.67207265,14.51499474,87.28626735
747,-8.046824301,-23.44487265,-1.289468117,-10.85909746,4.160155548,-16.67498983,1.024395941,21.24343051,114.6620498,-39.9979841,15.25298816,56.23867104
748,-7.910820576,-22.95979952,-1.498979758,-8.300157824,4.205496215,-16.44562,0.571542064,9.278227599,124.4502338,-10.14198166,15.79482929,30.58985397
749,-7.832288769,-21.53767985,-1.599024454,-5.955926219,4.404623913,-15.85170386,0.801588342,-15.067233,140.085563,9.428607493,17.65487359,12.52663069
750,-7.817262797,-18.60470322,-1.809859737,-4.217154439,4.331210023,-15.91207957,0.887566517,-42.11286634,158.5121677,24.63879812,21.42240682,6.941896575
751,-7.899610016,-15.28574814,-1.592317714,-1.853381098,4.135800686,-16.21162883,1.825482116,-61.74227429,179.3908278,45.38320936,25.45192672,15.53471894
752,-8.179387557,-13.26356643,-1.432677044,1.649019898,4.211772326,-16.08768489,1.990136576,-77.26095894,202.4061446,74.63837409,30.58879626,33.47013503
753,-8.459060072,-13.4257802,-1.644797516,5.351983919,4.227244598,-15.17813646,4.01205003,-99.33697168,223.1586137,106.4822311,36.33173066,56.2911183
754,-9.102564268,-14.28784528,-1.002118839,8.061770083,3.919494011,-14.08984689,1.117566774,-134.5940782,251.6033899,133.0458799,39.77626419,81.28433591
755,-10.34998693,-49.22565918,-0.822544865,32.45083918,3.593180619,-5.805725769,-2.921005138,-142.8183846,278.6823122,180.0887824,41.31551088,3.579818842
756,-11.87847374,-29.3228477,-0.291274183,-27.36838735,3.21427252,-7.632355224,-8.553505005,-612.94677,299.8472889,46.16015196,41.71513424,-128.514076
757,-13.40107229,-43.7850348,-0.300528559,-57.91750985,3.5218404,17.48021597,-13.22590469,-359.5235786,315.0577547,-111.1442886,40.55929146,-70.15363922
758,-13.83077712,15.75133474,-0.027240583,-11.58651567,3.336734552,6.526347972,-13.25793906,44.30349735,327.3145369,-237.38193,38.91956525,-86.60991708
759,-13.83698982,2.45978945,-0.093709149,33.50027502,2.697490304,25.47103252,-14.42079287,40.31913428,338.0407807,-91.37311199,33.54242068,-111.083088
760,-15.25641023,-12.35422086,-0.20664666,-25.83793882,2.496527184,-2.832555371,-17.40063555,-157.2438415,343.2033233,-77.41593384,27.88120794,3.232663042
761,-17.6286723,-6.325629143,-0.060183944,2.54199746,2.392446702,14.24679536,-30.68996501,53.97966383,343.341904,-23.07138619,14.941374,-62.52954905
762,-18.20590953,-3.766164564,-0.786757149,-10.03616808,4.271912142,7.339574715,-56.21603585,-3.71404686,337.028196,0.25152053,0.138724094,27.13443842
763,-17.15556353,-6.783853923,-1.262634928,3.992983122,3.646187035,9.302590508,-67.19102072,52.38936513,315.0146377,48.09796271,-11.81755007,18.14738238
764,-18.2685877,-7.022575565,-0.377891425,-1.949355982,2.786299077,6.822948017,-77.67479028,34.36277096,300.7117719,54.62094345,-31.72428614,40.62848912
765,-18.9185205,-8.415154941,1.935272466,0.836902015,5.684771381,5.772957882,-107.1064115,60.92222602,285.9277277,63.36245623,-66.18734394,53.62513505
766,-16.14109083,-7.942718854,2.400859986,3.65182837,5.623193411,6.391912846,-166.6612111,57.15392028,238.3767443,53.19653294,-97.06753807,51.86334787
767,-15.24851312,-6.74958466,3.358056872,2.681509505,4.650401698,6.939805425,-208.0723706,31.51668854,213.276279,39.03234377,-112.7209701,43.65773259
768,-15.04881282,-6.059422786,1.35608365,3.729483414,5.703337108,6.735526664,-241.7699412,12.30054903,206.4363271,34.38735456,-120.2389518,31.4986085
769,-7.773166707,-5.33429478,-0.418176923,3.390953681,4.527369416,7.005702361,-272.0330958,4.449886437,171.9930034,39.3310335,-131.4383878,21.01952189
770,-0.055018709,-6.111014413,-13.69023758,2.802014847,5.525244608,6.879893703,-289.4427301,3.996999645,136.1867137,50.47842228,-118.6583503,9.419589721
771,-39.85184091,-6.783951021,-51.37926982,1.298572807,22.07048144,6.915447343,-140.0671212,3.135349209,88.12948743,58.1856,-109.7632227,3.224023878
772,-39.55853199,-7.125401736,-43.44761726,0.726628028,26.35326929,6.81015804,95.35808109,5.113307373,-75.76918432,63.26795691,-180.791977,4.134591365
773,-9.048638318,-6.923249425,-20.02230973,0.283927854,13.48593255,6.973044401,306.0510064,8.296677831,-245.3277143,68.85799001,-197.2724342,10.72301985
774,-5.451777284,-6.620691694,-8.274115797,-0.015402245,9.448770106,7.022543653,392.5086141,13.01572973,-274.5508327,79.39819405,-119.2145189,21.39548096
775,-6.1157315,-6.518403982,-0.450849883,0.123884105,8.480761077,7.016315015,394.9390859,17.32267596,-290.7603995,90.18971268,-45.98411255,30.00348583
776,-2.728815798,-6.418855211,7.555878151,0.463367028,9.514279975,6.898725524,348.5242869,22.28015733,-293.5764825,104.9422543,1.949682508,37.06313075
777,-1.441849705,-6.384234635,15.77964412,1.812681657,10.36111217,6.90203965,234.0952518,27.44333741,-275.5491328,118.8273756,19.04772608,36.89751544
778,-6.479616008,-6.704144787,10.11562898,2.097702744,11.47529788,6.502998272,57.58618227,27.01485949,-245.3643975,128.9625285,43.62215552,36.86456964
779,-10.87799725,-7.199258066,3.795549578,2.748659959,10.05383753,5.882765253,-64.75903406,28.07720984,-248.8325845,136.4822561,53.6642081,30.2200602
780,-13.62723593,-7.8572259,-2.264180333,2.546070993,8.267559502,5.099098864,-139.6208877,24.14497639,-276.8451075,138.789913,70.43763179,28.11881534
781,-12.42192471,-8.178165148,-7.368725647,2.496379512,6.154308134,4.72722219,-169.8456069,21.8722884,-315.4493082,137.9749717,94.68009307,25.24912396
782,-9.533234769,-8.334065035,-9.478495224,1.833412963,4.320086262,4.436139464,-168.8936198,19.02082091,-336.8364664,135.9577664,111.2274514,23.69512009
783,-8.653986027,-8.508787697,-10.70946497,1.617739922,3.487130848,4.160004476,-156.6048209,19.47991186,-333.5247649,134.8153149,109.9595362,23.90493243
784,-8.470278701,-8.543084628,-12.87231686,1.534622883,2.530323373,3.912730032,-127.4859775,19.31222401,-316.8499828,133.3023479,93.64503402,27.16147009
785,-8.676139754,-8.59911515,-14.05674464,1.937504876,1.914638052,3.750368875,-91.39721314,20.10277321,-298.2124343,132.0930103,68.70560288,28.5260121
