sensor,left_sensor,left_sensor,left_sensor,left_sensor,left_sensor,left_sensor,right_sensor,right_sensor,right_sensor,right_sensor,right_sensor,right_sensor
axis,acc_x,acc_y,acc_z,gyr_x,gyr_y,gyr_z,acc_x,acc_y,acc_z,gyr_x,gyr_y,gyr_z
0,9.408650477990726,0.8808107066241603,2.7622080650315675,-0.06226105420289059,-0.11240170597252426,-0.03215716519203072,9.513275480139699,-0.3115525903932147,2.3986460950756583,-0.025288150801127177,0.3230373811130934,-0.0846041735673653
1,9.465895052346951,0.8850068718083505,2.746447907459329,-0.719601252309898,0.07392088948359403,0.1011077533556774,9.584279290783856,-0.3170229232786327,2.3632936546607977,0.15209018828027807,0.07596053258325089,0.035851215807326656
2,9.436032779043474,0.8657773098030204,2.686105614074954,-0.7796844864032578,0.07418249919722965,0.1023235077483143,9.570156365021885,-0.35507165946691416,2.401945550596508,-0.028626157177469178,0.20037800867153388,-0.20653779210525672
3,9.403942719542204,0.8761276320269403,2.771787286697148,-0.12064467267943328,0.009969321856058278,0.029009751651549526,9.565812689489617,-0.2881055678310055,2.3876128480379792,-0.3902021443626691,-0.34791244878390465,-0.07557390648400195
4,9.393766058836185,0.9282671736202406,2.6822856540362388,-0.36153078027637653,-0.1108053964448583,0.034536603088496716,9.541390803938155,-0.35008149834861674,2.3884026980124857,0.09389513986510518,0.2605335999971613,-0.025164476673931842
5,9.371929456289706,0.948315510374584,2.8053383006144985,-0.421746731325939,-0.29320415279080486,0.09758880053731232,9.502528999220791,-0.3833088836848973,2.3608893004438363,-0.1463602217195019,0.14028638522648296,-0.08179527605301108
6,9.407971536279277,0.8615242305669248,2.734039364446893,-0.2972594287887063,0.011696114210007835,0.2756959432781407,9.50338088734383,-0.3354097316463952,2.389415959807769,-0.1423208347906913,0.3243073729311585,0.03985358073409043
7,9.44729014231293,0.9186624796272338,2.75152527854202,-0.0004686846022378442,-0.1121790202563368,0.08825181989116793,9.4604012982951,-0.33505799051888163,2.385819416535576,-0.08923578448039797,0.2622103328834281,-0.32819301118485095
8,9.407966700861776,0.8662767109695705,2.7293045776582225,0.359395162090036,0.1294801088119693,-0.04188915523136052,9.527445288650805,-0.3260224589619889,2.3982858565266865,0.27156540010904107,0.19735279948932838,-0.027921560337465002
9,9.336425346561185,0.8812433739229093,2.7312373231586395,-0.06115803877085237,0.07036191149895749,-0.03330136640591947,9.512760564511346,-0.359393364868259,2.3939793612894875,0.2095012292732736,0.1365939381919827,-0.14908706855087864
10,9.443550309763443,0.9238715420606193,2.8175859134653582,-0.12252459592105737,0.25286886963591426,-0.21574924379974314,9.512916397918069,-0.32116511223645144,2.379579204879325,-0.1467203064020574,-0.04367761554688197,0.041470243130135066
11,9.36636228362031,0.8957481109702591,2.8010251881056205,0.2990391431451013,0.06874093374226477,-0.040370704269142826,9.469735690690625,-0.3494991549736579,2.3808177975203137,0.2698367271986217,-0.10927953208632285,0.09586823259595509
12,9.422593280826861,0.8662620816659504,2.747746766445041,-0.4222335410862523,0.19350753155341605,-0.1486708380221158,9.451113255989661,-0.3588100521578383,2.4195371473076572,-0.03182707951760789,-0.22895248633777174,-0.08218785014876208
13,9.427411683446662,0.8995153495683746,2.719180393595309,0.35913676051170834,-0.05309715968521856,0.020080416702396877,9.517529651446084,-0.38808450182159393,2.4129998479000636,0.0338087383814996,0.4450744433059761,-0.20862550253674364
14,9.407952194609269,0.8805341521775073,2.7151002172922114,-0.24420504838021903,0.009640968348671237,-0.2117650438598726,9.473920869520928,-0.3830666059247605,2.3616729283394093,0.024537164482050317,-0.4135614441512401,-0.14362576146173228
15,9.337564074134646,0.9292383205086755,2.7639727964288405,0.0028846133965383367,0.01025999298315209,0.269839923829314,9.533132060230376,-0.26382663237416204,2.42187835072699,-0.08782785368516548,-0.16693588742129542,0.10222889732363726
16,9.4375711349758,0.9329481106673608,2.728166648834087,-0.12623596740699447,-0.0522631095132347,-0.33530067110158773,9.4704075050438,-0.2920808851934515,2.3902354661561604,0.6320851080913163,-0.051528385716980644,0.3956396163041111
17,9.384918839479313,0.909617307177832,2.7485999491362256,0.17619002726905514,-0.2356128406248837,-0.09682471368669454,9.522407156379366,-0.3117034027227429,2.36975297508382,-0.38315549924098213,0.08143085587106426,0.04498598655811818
18,9.375508157999773,0.8954986775807465,2.7724931792560574,0.23997730938743733,-0.05240447555006786,0.08317802206151176,9.474661143691137,-0.35428741795850804,2.3950136733506464,0.20941619499061664,-0.10868457743310372,0.035657925719392726
19,9.447439469824227,0.9092128297112732,2.770416421667232,-0.2436134463748319,-0.5986399372178415,0.09605431000944477,9.550724131015583,-0.33587190547674756,2.3642499877373853,0.1481503102340297,-0.4146515398671613,0.16044164261447655
20,9.422783424171291,0.8853549696105287,2.7429399736121662,0.2311931007619227,-0.48050904290055,-0.3395797012946335,9.527850720962524,-0.35460316321248514,2.4460688584798382,0.08665864019641367,-0.10751767736437559,-0.20721039026078938
21,9.432979426547318,0.814205506406646,2.8513807534277573,-0.23773507762417914,-0.3538006374328767,0.3983701949954356,9.493956458063373,-0.31620900832076676,2.384863083458988,-0.026097886645597087,0.016440523624297133,0.10040152984435477
22,9.474017678741738,0.8605802047356302,2.670928060944084,-0.4185754959131711,-0.04883627905008592,0.21767275310396855,9.517976639916455,-0.32593002419591843,2.403319050940763,-0.14337319230615722,0.07903380843209708,0.16336606328364095
23,9.384300055271005,0.899863447370553,2.715672459748146,0.5915804959757167,-0.2995620361013462,-0.40853587674152053,9.47490754664184,-0.33514410286087537,2.399743557934446,0.03735242060921565,0.506428423313878,-0.02520348220208548
24,9.383182801860675,0.8994209602559083,2.640299903365176,0.17485914820216963,-0.2967413531050275,-0.15714491678310588,9.522050737452975,-0.39294281788259333,2.3985638130370823,-0.1458529881771206,0.2629422294182312,-0.14356348789229845
25,9.394023898025637,0.8808253359277803,2.7437658762447494,-0.24049803382301388,-0.2328091349806388,0.15451506916700028,9.498142169552725,-0.3641018379351921,2.375293759908003,0.14659744433442198,-0.23076385210861738,-0.08523883465655488
26,9.341321115861014,0.8384569553830037,2.778427538927634,0.1175573897503242,0.130028182582931,-0.15881236688142572,9.516856239115766,-0.4025266356118321,2.3748555423744593,-0.0265555083555878,-0.10615601931284298,0.16211821522360956
27,9.365290681460618,0.9190956813135077,2.7066894825532346,-0.004010104748301822,-0.11314317249122113,-0.15485690264042679,9.512916930577118,-0.3354904908997742,2.3891547505092445,0.0906607912994205,-0.16875737485233624,0.09916908517999455
28,9.475741342600992,0.9515963739471948,2.703447516081672,0.24114916226732316,0.1305543828077602,0.08203480158465164,9.484309333536302,-0.3495735918029601,2.3995139240347365,0.21245650615044331,-0.1699236772188171,0.28080213324215786
29,9.412185660943276,0.8707661974541333,2.6867498625750925,0.4784399282402454,0.25039471227338295,-0.16655966972082195,9.474481069921273,-0.34476830021680366,2.375904682622561,-0.14763570151660083,-0.04371136356616023,-0.019747563808041546
30,9.423823310901593,0.9618371431675035,2.7425559413764096,0.1199691520466196,-0.05179777200170233,0.08553124930929665,9.4651677219346,-0.29212223415560284,2.3569621749965566,-0.14534916385508392,-0.16631029169241923,0.2256911884494241
31,9.418090171975276,0.866414453805372,2.766723555643758,0.06133230443131962,0.313883255191022,0.023541391621054168,9.483883389474785,-0.3735231678222111,2.38525059435277,-0.26824276264089114,-0.10382475025560992,-0.07868662210282586
32,9.394603998893933,0.9285990389562241,2.7388150713234656,-0.3618763164503261,-0.17176769900314337,0.03488934153118922,9.522586164831134,-0.29257176313780175,2.3697108745520676,-0.14841733762768083,-0.10503637612174258,-0.019470660501369405
33,9.364501095577888,0.8712390119510679,2.6975079331527114,0.05461938881612259,-0.05291989829115735,-0.27798902652544283,9.484331975922299,-0.35434482618650387,2.404296434283227,0.09119597594862106,-0.04612498529377397,0.03741168429998682
34,9.423426385467106,0.8713464274045796,2.7995413969435976,0.6017672913017851,0.06811551321623778,0.13613873424322404,9.503223455959962,-0.3306618482882346,2.3750894793281736,0.2136036255840916,-0.23120916610549286,0.40351302656991794
35,9.451188973208714,0.8944988064725964,2.7138253603212346,0.41888300465472295,-0.23594480955618305,0.08087605343854168,9.57026957695186,-0.3789278313846328,2.4258581018389602,-0.20334765693899456,-0.042945590631075,0.22609895795373816
36,9.471132424995625,0.9184260723787664,2.746146243253211,0.1798804068943528,0.06963700074208792,0.022778772431377055,9.550836277627463,-0.33107732006782076,2.3690114477199997,0.08217944568417593,-0.7207606396402844,-0.02085700237371598
37,9.418330801987846,0.9045449188051982,2.747688400430137,0.002295672054000246,0.19272708549799794,0.14708542235559185,9.498095286803588,-0.31158323317813635,2.337002102521265,0.2662491350402551,-0.17067832608965794,-0.08751019743774359
38,9.443056675978925,0.9284304343506077,2.779875633259139,0.41100070860496524,-0.11633133337975624,-0.5278342110872497,9.482964106852808,-0.42143399537340476,2.3519519498732855,0.5121774131094724,0.25628936075188274,0.09017306131701272
39,9.45101817153429,0.8563959969174355,2.7375713003087907,0.12667106009705284,0.19333985823277092,0.4486886858971394,9.527424244241956,-0.36422736056841337,2.422229983167953,-0.2628182156794985,-0.04236209057649823,0.22712963848074694
40,9.452127886602739,0.9329058259190754,2.74189805284697,0.11752269090753958,0.25182163590611123,-0.22037516874102606,9.522497725923346,-0.33078834025691783,2.388883016077782,0.3891779450542897,-0.23309870558612017,0.21681086253787984
41,9.485024741163624,0.8848398703653088,2.74591330704743,0.3562759520753583,-0.23632303531447646,-0.10034667380728894,9.511975538228196,-0.3929554627307468,2.360649141411188,-0.1459290582752071,0.017677449303562996,0.04117417524739375
42,9.4996223086237,0.9133401234775624,2.7359467751022257,0.41415175873528554,0.24962025384960534,-0.4693780373950513,9.549983856845376,-0.364651093443,2.330909242726148,-0.08690430979862564,0.13969067431786505,-0.08281187289193409
43,9.413779338961241,0.9522220949710759,2.7193173217421505,-0.42446605178891006,-0.719724752453875,0.1003884550451241,9.512669994967366,-0.34030842733408406,2.3748493202955254,-0.26586382712532997,0.01886076719470452,-0.017999158523755485
44,9.41333889476924,0.9045037028319627,2.733689696211305,0.23899492544162299,0.06908600659912165,-0.0391614201612434,9.485047477070317,-0.2634928891834167,2.3945524865262975,-0.026869162384606505,-0.04491339418388706,0.1006932351776432
45,9.380598906061532,0.8670526665827736,2.8196113889808476,0.5942034388583022,0.24865044701791353,-0.472927002200331,9.531653109867106,-0.3643611442966352,2.3839234975942722,0.27379214086513837,0.3813600151493735,-0.02874362672925686
46,9.407427415826616,0.8470455458016656,2.7105574466214195,0.0007026807580601088,-0.05104247061483805,0.14868128846745945,9.546225154735637,-0.3214594451359692,2.373892987218938,-0.022447093607490025,0.3231224147507452,0.09904168276649436
47,9.43281772527664,0.9044749786122476,2.756709019669084,-0.0006886040546173515,0.13112446619105536,-0.034895210902798464,9.484016047836464,-0.3161983021435371,2.3564923820641983,-0.09217289834639016,0.01689097772784595,-0.32711483174744094
48,9.418251302814696,0.9140222241658241,2.733508042078861,0.42216861202921296,0.008231924081808088,0.20087478059489558,9.450933714878845,-0.36361631307945663,2.4100037022094907,-0.3260456090772352,-0.041879605507963796,-0.016712002225036715
49,9.364166460139664,0.8568432935198046,2.6881583696490443,-0.0012732267465699724,0.19179469045272587,-0.09601802039838676,9.541166510714397,-0.3596706691664704,2.3788797780472573,-0.1445048148186714,0.14034324143452204,0.04064072354170328
50,9.446266894328256,0.8944852459440262,2.704537440876338,0.004989014512482611,0.07178286039357976,0.39104821519372257,9.537228800152894,-0.33561066044438065,2.4219056230717997,0.15420061522734935,0.014682184312220788,0.21977922274407
51,9.47024883368724,0.8943041495848895,2.7085799751354,0.2973784280833621,-0.05322606203085723,-0.10032571370290927,9.47403248347376,-0.36394664185251097,2.3568588426921044,-0.08667881619017909,0.07834381308675942,-0.02130450812983392
52,9.432637252767213,0.875877129862378,2.7709853860792997,0.11509932247156292,0.0077947300981959095,-0.2796123008491278,9.489053114789806,-0.3018666010561376,2.3658741722472265,0.5028769464283287,-0.3571008950490791,-0.029531633842349494
53,9.432863376527278,0.9282650360701409,2.7377458704996678,0.419782383307123,-0.23574688689278478,0.14165080913346384,9.517191613633306,-0.3594921220584062,2.3699888310624635,-0.028597214589532013,0.20034957348236976,-0.20652317052682662
54,9.413553215201176,0.899834188763313,2.7525568373217824,-0.5430242421247293,0.07215586222479409,-0.1455489752703204,9.588956210197471,-0.2836529867078245,2.3344574633876545,0.20892550998300857,0.01396248034954146,-0.08731727883192592
55,9.40882611508265,0.9141610357766755,2.7431969118326816,0.17985379514234243,0.06957345365367837,0.022790301963092292,9.507564468196989,-0.3260010466075296,2.341544453737107,0.028790191794785595,-0.2908388449166701,0.039508680712993065
56,9.42737300010665,0.9375351927895397,2.6813020992859458,-0.05621580573234479,0.4368029069127917,0.14673105900458805,9.464945026687987,-0.34468754096342474,2.3761658919210853,-0.4464613696721059,-0.16331982977162324,-0.014142751182752537
57,9.436153094049757,0.8848425423029334,2.6765880364681434,-0.11595338993823145,0.07210054004397025,0.33261974275580103,9.522094956906871,-0.3738345293230353,2.3889777422742253,-0.3785131017773383,0.388130165484237,0.10483506751411248
58,9.378429392161516,0.870947828200795,2.6688422742001734,-0.42264400949038805,-0.41503542480913286,0.09846643682028977,9.493553156387849,-0.3449298187235615,2.3753822640255122,-0.08963097032063187,-0.16697428606468367,-0.020228044704114406
59,9.442050066739876,0.9565581405411674,2.6855159256920182,0.12000338491671447,0.3741658172566656,-0.09954225583839545,9.484039755540556,-0.3496202938537263,2.380425983572527,-0.1416619292935669,0.14037569812050849,0.22431752662865012
60,9.39826703519465,0.8615524203991151,2.7248850951049715,0.11804399403339522,0.06938977502738965,-0.0976029761708915,9.478912119043233,-0.34486705740695084,2.3519141523955374,-0.025848092577739904,-0.04486795607850672,0.16188412731802232
61,9.432223118155841,0.8709587167917405,2.7474554642243567,-0.23421918667759836,0.0730598217615984,0.4564857548790696,9.5264359691439,-0.3691737276423303,2.3554327166831586,0.08545038007776039,-0.29148969221213034,-0.1451847385457069
62,9.413353401021745,0.8902462616240258,2.7478940565773162,0.0027736486329532416,0.13200285714072565,0.20826625407231064,9.518199867822116,-0.2876900960514193,2.393690879646153,0.09083578041468651,-0.23008045368276217,0.1606743693745928
63,9.345814553877597,0.8478095440488732,2.749981176151576,-0.4212943691155529,0.0719898272697437,-0.026300070005538773,9.503133951734078,-0.34022766808070515,2.37511052959405,0.022602956175925375,-0.4136047958296786,-0.2660556560488199
64,9.403812733700917,0.8665673603323185,2.7718352907266177,-0.12375047160236845,0.07001497090010911,-0.21453523735530466,9.523687119200115,-0.2971561893182808,2.450845146649395,0.03427539225627761,0.015864299810293435,0.1606032194428892
65,9.403340574079524,0.9186787120934287,2.6914879274076298,-0.6582591918621779,0.01311284504262198,0.22195533068604195,9.569147045514978,-0.3982229281472556,2.3590924107529805,-0.2663499674501928,-0.10372898884476124,0.04372004421354761
66,9.495068713103974,0.8944549185617363,2.769151926681689,-0.24169125736958327,-0.2938796239283339,0.09408625092623783,9.498365397458384,-0.32586190979069296,2.365665588613393,-0.08869824178258495,-0.16695745877847706,0.04099793723238508
67,9.412404816792716,0.861344202982838,2.7103517904742405,-0.36018582322871384,-0.17129420841450843,0.1564817523320514,9.512288803018789,-0.3594750934570998,2.360575465480621,0.08931676085354048,-0.04615558678898542,-0.08503354471490279
68,9.484820091566688,0.8800044236286673,2.7365157395142936,-0.54051334344655,0.1945670013966632,-0.024757286275976457,9.52258723014923,-0.32122252046444727,2.3888619658119055,0.08299671993275508,-0.41419015974113393,-0.2058480205320087
69,9.384080899421566,0.9092854418418485,2.6920705318489984,-0.060767479651955274,0.13136937858200673,-0.033673217828123915,9.570380125586594,-0.3311571099857378,2.4018929249318175,0.2715558705717941,0.19737742608808626,-0.027935541488606653
70,9.470258504522244,0.8847991887795982,2.7180495487127407,-0.11978027889619704,0.01028220828552424,0.08982534538420066,9.518269925616295,-0.3593053138553415,2.4463405929113007,0.15537347000704244,-0.04660403313963841,0.3424804958367084
71,9.3840186094253,0.8331904445101879,2.7584055509198535,-0.3656155596857982,0.07063434554673738,-0.33142207503663174,9.542287976833181,-0.3117248150772022,2.426494377873399,-0.1970802533360175,-0.2267789789273086,0.7779117580949385
72,9.441693957138522,0.8946099626387825,2.7188034453011194,-0.42010473425784733,0.2549296985570744,-0.02746917112550848,9.484845826232556,-0.27785329438481404,2.3898120768095596,0.029263099984701557,-0.168225486443889,-0.02222559645925093
73,9.451268472381864,0.8850215011119704,2.728005718672511,-0.29935883922839696,-0.04964594840103967,0.154509884002931,9.536104670738867,-0.3119296212170351,2.3264132950960628,-0.1467158034977657,-0.04367268860197388,0.04147081805270669
74,9.421740834516607,0.8801876575379037,2.6770129887918026,-0.24454009256411122,0.3746509378203256,-0.39645872846055075,9.54132287678017,-0.33576779519798555,2.3740551672670143,-0.32638456708916164,-0.2257931118524929,0.10652131417243406
75,9.38869251995131,0.8711408819259271,2.71568282173358,-0.23676274529793154,-0.0493059533505068,0.33572287850739296,9.512513096242547,-0.34988592263924617,2.3700983854458495,-0.029944566531209516,-0.22888320047007604,0.04024014961188181
76,9.408780463832015,0.8903709783187821,2.7621600610020978,0.05796165217663222,0.1913200143696657,-0.15803348532284728,9.47918222969803,-0.3591457340195074,2.3805776384876656,-0.029108591044482705,0.07769092921097985,-0.14475654022664355
77,9.440307061210614,0.8845518929401853,2.634057323399748,-0.06194830584144086,-0.05137909938053854,-0.03246486603537169,9.498007380554851,-0.36412518896057516,2.365749789676898,-0.08866990617133698,-0.16694365023786306,0.04098276555337212
78,9.398156391023367,0.8329822270939107,2.7438722462891225,0.4178723795280315,-0.11457735016467067,-0.04149853911443992,9.526838738160375,-0.3261275385762128,2.3553379904867153,0.21704491297994116,0.13676220146785792,0.3406775009841247
79,9.388931017470757,0.8427089658440493,2.7582238967874093,0.17828356504179704,-0.17422540975698242,0.024350962469220278,9.536668067093501,-0.35958358748901476,2.398098323158729,-0.03089853043588823,-0.22888695995605413,-0.020991104246531268
80,9.407952194609269,0.8805341521775073,2.7151002172922114,-0.30286847235257436,-0.05058217002999953,-0.08862710006804515,9.49843332461637,-0.34017561294132415,2.3800131193588645,-0.035925502980202396,-0.41297336334083107,-0.20382264277689452
81,9.408418948381902,0.9710525233850965,2.6628255464989588,-0.11651528933105758,0.2544601827940227,0.20988171977886422,9.521533158529381,-0.36915669904102394,2.346019351101316,-0.14530448414607386,-0.16625339348421092,0.22564574055053485
82,9.484531107379102,0.8893987626552974,2.7082030268412103,0.11672129625949221,0.12998084102046698,-0.21957269446558403,9.483635921205984,-0.36401572559319834,2.361369618509132,0.09469238851707447,-0.22998506463719337,0.4055317083288695
83,9.43347248990058,0.947523856682711,2.7612037863104066,-0.2408539196282129,0.2538707930263513,-0.09179299110467536,9.584077639946095,-0.3313833284800301,2.35855324494406,0.0902213471102419,-0.04610642153414905,-0.023822702718060976
84,9.365449679806915,0.9001410705922559,2.735050199255787,-0.41903739768487563,0.01174804142313708,0.15646480630268583,9.471239946735132,-0.3253627707513422,2.4714328890511172,0.0899058240496861,-0.2301076391141672,0.09944834857614647
85,9.364479621414759,0.8236865524799464,2.7401450162654797,-0.057204433675379265,0.010562387260925397,0.2710202521943237,9.56491498393554,-0.3121368724390973,2.339945622547147,-0.14139385286904424,0.3243495000304983,0.1010681696750854
86,9.417112575241237,0.8660272775800578,2.7007725688086595,-0.0032603302329649777,0.008794427454426525,-0.15564606178383952,9.489189501764827,-0.34481938602072276,2.4041447793680883,0.08929781047504959,-0.04616989582053402,-0.08502403230959725
87,9.422583609991857,0.8757670424712416,2.7382771928677,-0.35312129670254594,0.2564225927262782,0.4576556072727296,9.498095819462637,-0.32590861184145914,2.3465776481511837,0.0885690797769249,-0.10750698243839928,-0.08474660351910596
88,9.460144704243746,0.8751564851385055,2.6901001443045462,0.004973373444914025,0.07180156323759768,0.3910558757920366,9.494113356788192,-0.30663151301560465,2.3896140183086643,-0.08652451127529634,0.017027045586384546,0.04019882650669608
89,9.475479238425294,0.8659134494762472,2.7651197544080612,-0.12508834413951106,0.13058580055800215,-0.33651009204749227,9.522766238600996,-0.30209088087950614,2.388819865280153,-0.13646797086567167,0.2631284880417727,0.468664151866639
90,9.456946859653799,0.8282818512554462,2.841218927320808,0.6587033911730896,0.12790769872206895,-0.10861031429385269,9.512356197517725,-0.3594634179444083,2.3653474505961736,0.15622572637969082,0.25997451923094317,0.1574854919039511
91,9.411576547569972,0.8515073768415632,2.6632919467643537,0.17454167543246055,0.0682586885274582,-0.341884134984453,9.494360825056992,-0.3161389552446175,2.4134949941523023,-0.032508699047387464,-0.04501978185749369,-0.26664605539521985
92,9.431659656033174,0.8754899536370638,2.705034399244201,0.23645858769572037,-0.05321846338718211,-0.1599363661182568,9.464900807234095,-0.3637958295229827,2.3857519626839427,0.028998610538123682,0.1996693571172499,-0.3299626809455381
93,9.48004250478002,0.875293693586782,2.741384176405939,0.05490151052303006,-0.29613755554263893,-0.15489182822158504,9.459524637149872,-0.3208843935205489,2.3142080644034766,0.0901719629848075,-0.2914354712842015,0.16095077750859327
94,9.36127637097605,0.9194416415655864,2.758641765169501,0.0026370201458543827,0.8011915304756192,-0.09998868287170062,9.483412160641274,-0.3879302750743747,2.361422244173823,0.08955895038056934,-0.1074689435900749,-0.02354913744862506
95,9.39919144233617,0.9142168810535309,2.7387534272646956,-0.004677733946445835,0.19091913424120383,-0.33921037029036555,9.503179769165117,-0.36409551551111535,2.39425109572095,-0.2646918835036075,-0.04242082065224353,0.10469979882157042
96,9.42217914621549,0.861343668595313,2.7242168445900976,-0.0016093184425471129,0.1308992895363709,-0.0956596936515827,9.532257529721342,-0.30695455002912037,2.388569181114567,0.02884501835533809,-0.045572709104617914,-0.14522592900802606
97,9.422930048758206,0.9472201811789177,2.6955200996812576,-0.1213443983107759,0.3140601712354818,-0.1552647624346918,9.489323758103652,-0.33047065633201694,2.404113203969274,0.1502233775759679,0.07587470185686188,-0.08656891146924131
98,9.4803169827151,0.8801567957680889,2.7554925287130105,-0.05907199391420957,0.25355246362530953,0.02627095638618633,9.474973343163633,-0.29215629135821564,2.3757889061602415,0.03242084964338131,0.015787571224963777,0.03818484703995842
99,9.446430728092055,0.8707781548201287,2.737632944367561,0.3557238062173036,0.37194213796755965,-0.4081987532849787,9.522407689038413,-0.3260287813860656,2.379328520713739,-0.44576082812536316,-0.10196564795750772,-0.014420008468430463
100,9.427630839296103,0.8900933550970793,2.7427823214944564,0.42157132774592004,0.19061578989470704,0.07811339017918069,9.503920575994373,-0.34964170620818563,2.4371673863621064,0.4485322410278321,0.07285583208993665,-0.0304279743821069
101,9.437439016641388,0.856825457891035,2.7897908831310065,-0.12432524441318764,0.25242141897539017,-0.3373061842607756,9.522071249202778,-0.34041253761284607,2.3650441407658964,-0.2040736705050112,-0.10431999026936262,0.22639998466734026
102,9.427531998452947,0.9185805820682877,2.7096628159884983,-0.060179249886185886,0.49661390422004686,-0.1576219954870599,9.536802323432326,-0.34523485780030894,2.3980667477599145,0.03097194187556332,-0.10682038171303257,0.03868311679310342
103,9.375033865885257,0.8810476482601526,2.7537220462045195,-0.717160764030381,0.7437410399963075,-0.024774902645632507,9.53581404833427,-0.35018122487422576,2.33126948127512,0.0322481974665475,0.07714613355054267,-0.023340137791333784
104,9.398941141488597,0.8855913768589961,2.7483190089009755,0.1193951214554155,0.5564732057256417,-0.2223336381606898,9.512849536078182,-0.3355021664124657,2.384382765393692,0.0871877740479328,0.015102397882452916,-0.2689517066261711
105,9.47906007262848,0.8796589977641135,2.67069840278217,0.0597304360399797,0.6177978712390081,-0.22151475614801167,9.440949085198044,-0.382713895461785,2.391219071577558,-0.20686305473625172,-0.10441106456011766,0.04274635858263548
106,9.35044764857047,0.8572174436040735,2.730956382923389,0.0009425176347295931,0.6790788617717414,-0.15997219609934316,9.565454672586082,-0.3263688470008877,2.3876970491014844,-0.26808811192071397,-0.16510778525171985,-0.017202284000704084
107,9.432049613557039,0.9041707687209293,2.7048903871557926,-0.420704578102872,0.4373041848582721,-0.15021098573418135,9.508147843642377,-0.3067993539464392,2.3701342638986684,-0.07917586939488261,0.078517591601492,0.46846097952471616
108,9.36998180116351,0.8714738160369605,2.7444821307890925,0.23826959239086148,0.373074866063682,-0.22348864329049006,9.494607760666744,-0.31132101881030755,2.427800424366021,-0.44264045041474687,0.08203192871422446,0.04600311762794645
109,9.399675405285686,0.9191629495688337,2.7669941338935744,-0.11881486526361627,0.4363407820350029,-0.03451976433195395,9.484915351367686,-0.3351431335254135,2.4328862444447883,-0.14745159049534878,-0.10501399649816516,0.04173791192004667
110,9.43249276067342,0.880574299375693,2.7568290297427582,-0.009793290209931376,0.06794064097468118,-0.6423846792188278,9.564915516594587,-0.32646225110242005,2.349521168177066,-0.501364203628119,0.14401089014436722,0.046726706929106084
111,9.400258209078359,0.895621791112928,2.828354346028411,0.35822029664264776,0.06827072480363758,-0.10235247357557109,9.522385579311468,-0.33558292566584463,2.3841215560951676,-0.14817704256883835,-0.16632841065909815,0.041999295057858745
112,9.371154376659481,0.8862013998042074,2.8103611115799865,0.18052887531723436,0.3130533134509908,-0.03960847098320029,9.560596614084506,-0.321568908503346,2.378273158386704,-0.27070852515076144,-0.2264874042732566,-0.1393678427385311
113,9.480442133138887,0.8944695478653564,2.7507097378948706,0.41560728844193084,0.0674391702326966,-0.28584440430442093,9.541143335669354,-0.34057405611960395,2.3645217221688477,0.041250854688598355,0.19998501446930217,0.4658753679089805
114,9.441188520025877,0.8421114346523584,2.733199821785009,0.7178545887931758,0.5533608503469375,-0.3556003028619275,9.508912358175724,-0.3257675363536987,2.4369841560481533,0.03899988902786143,0.5677981552511978,0.035738995845931855
115,9.422369289559917,0.8804365565398914,2.719410051757223,0.9636250856701205,1.0404740375430936,-0.1810386577162209,9.509157163149283,-0.26364808526609784,2.412987403742196,-0.02438228737920697,0.3230407258864419,-0.023365707181281625
116,9.400133058654573,0.8813090390156605,2.8331371368465508,0.3027879362779824,0.7998464861683349,-0.1058940607267196,9.493643193272781,-0.3496893775944137,2.384936759389555,0.15612554098119416,0.014705791994372545,0.3422259360539918
117,9.403193949492609,0.8568135005250396,2.7389078013385384,0.6607214790643395,0.736866150652899,-0.23402945653603038,9.492969248283412,-0.34980613272132915,2.3372169082340317,0.32764155659720134,-0.1712346379459255,0.03390123395646686
118,9.433639026588759,0.852501904074464,2.86061030685775,1.1960613203013293,0.9156709491718805,-0.6713373240905268,9.499645892938183,-0.3256400750495536,2.456333305808887,0.3355376728173855,0.2581493143523221,0.2156773275756705
119,9.388218227836795,0.8566898526053331,2.696911688682042,1.133306255644125,0.9152839232337748,-0.8524111713392889,9.517191080974257,-0.34516674339508346,2.3604132854325446,-0.025861524058115003,-0.04484718241259198,0.16187304924329005
120,9.394837660995877,0.904919603276992,2.7766213595886247,1.5518015985227145,0.9129177563392872,-0.9822290209087784,9.513342874638637,-0.31154091488052316,2.403418080191211,-0.147040518461176,-0.22762725918181376,0.16471721700195088
121,9.360286970913887,0.8619970450638594,2.7447974350245117,1.4335460642479516,0.792221342880878,-0.7967144195445846,9.527423711582907,-0.34990198190509064,2.412654437538034,-0.262093984960787,0.018962656806321938,0.2268671018472908
122,9.36630212611717,0.8862154947203025,2.8057839769090256,1.6715658938155558,0.7297314065097327,-0.9226190361832387,9.57472220314172,-0.35514706563167825,2.387498990600589,0.09014015078937045,-0.29135730906963614,0.1609012429227898
123,9.379994628105731,0.8430413655675578,2.800888259958779,1.7313917584228344,0.42521066406278457,-0.8002500272624954,9.485050140365558,-0.3351197825000304,2.442430214675893,-0.08441553848154222,-0.04422820450671246,0.22411286999169497
124,9.403345409497026,0.9139262316907829,2.6962227141963004,1.4335967092284234,0.2447020311086903,-0.5500032375591175,9.53642113148375,-0.3644015239233247,2.38379289294501,0.15255841656647612,-0.04666312417727855,0.15881999494108776
125,9.433874250752568,1.0332620920429894,2.708953117531889,1.5554706528278492,0.24464068918234813,-0.4307775238169739,9.488606658978489,-0.3783464573451359,2.385130514836446,0.04308479727307967,-0.045240010137762916,0.773044211774271
126,9.487410137557442,1.080714818326395,2.726086085347561,0.3509054038846013,0.5532583503211432,-0.834887701075584,9.527938627211261,-0.30206120743004633,2.417321171324205,-0.2081141515840886,-0.04310638694599084,-0.07995381247911759
127,9.35632044417308,0.9526954438555355,2.716210338203912,0.5366621178020243,0.3712716509385891,-0.3508888283818398,9.55947568062477,-0.383840141255937,2.340234104190481,-0.2685463093096596,-0.287732708027216,0.044536055036465315
128,9.361370376401704,0.8957068949970235,2.7870264838867884,0.0652083317019686,0.3756568475220476,0.26629660424718,9.564826545027753,-0.35035344955821335,2.359117764072861,-0.44437650709850707,-0.2245314094320721,0.16975489979315286
129,9.399136120250528,0.8999317844009289,2.748247002856771,0.11553735096047958,0.494635914556412,-0.46509366758575377,9.479317551354951,-0.37344776165744703,2.399697154348689,0.3293183744655429,-0.1098759715601242,0.09484201552191045
130,9.40431333539606,0.9238183687213883,2.752704127454058,-0.2345780781513907,0.012089452669905751,0.4568794305785575,9.53111448653466,-0.37877992706149033,2.3553231622997726,-0.02291253554554172,0.20049474174222978,0.16078082497974114
131,9.423621364229039,0.8856868349465123,2.7994693908993935,0.6567828852673274,-0.1768197322032205,-0.10661381741965156,9.5751023297722,-0.307329642182017,2.382621754155655,-0.2651768137239136,0.08021264942011289,-0.01827233807483033
132,9.399545419444399,0.9096026778742119,2.7670421379230437,0.7172769410144153,-0.23782082299421572,-0.04657612431500531,9.537160872994908,-0.32129695729374946,2.4075580923263287,-0.08464203991291086,0.017100213074682374,0.16261834529161767
133,9.398726821056659,0.8902608909276458,2.729451867790498,0.12078107693550552,-0.051598533015302074,0.14633131264664134,9.569998933638017,-0.35032377610875354,2.3876190701169127,-0.4992576928106039,0.08276029457949262,0.23063962702438334
134,9.41396948230567,0.9713149829156543,2.7145105289092757,-0.002283875812184424,-0.5385689870890079,0.15181765468586722,9.480483769586678,-0.32071899767194356,2.447301229041893,0.027905147948662168,-0.045612531111064995,-0.20643994831932141
135,9.40303281865319,0.8092057301645875,2.7721233149034354,0.24080780590425574,-0.05215629324042058,0.14396093446481625,9.479519202192714,-0.35908735645604967,2.4044375640654274,-0.20207963953361066,0.14096812511077164,0.16410733652527665
136,9.41782749736832,0.918608771900478,2.700508546646577,-0.060429638795816615,-0.2335800143607793,0.15103400225089728,9.47837349571079,-0.35928584017180587,2.3233138171010377,-0.44162042712993654,0.08205539250035906,0.10721383593423281
137,9.441763785476669,0.8946376180834478,2.723514230075055,-0.0596541223960797,-0.11168046066391264,0.15022936760982175,9.53599252412699,-0.31672420662596196,2.3216518351134483,-0.2697412324461847,-0.22648417396597198,-0.07813667025451251
138,9.394382710551369,0.8714586523458155,2.776789373691768,0.1854535486454621,0.1318301525263146,0.3871049903563079,9.531248210214436,-0.3501058187094617,2.3457160412710394,0.3898141957317256,0.13480596303741124,-0.029686005981558336
139,9.38948964417592,0.8429302094013716,2.795910174978894,-0.24118535069764346,0.07120431646472715,-0.029847006913612705,9.50423277546687,-0.28751057960789317,2.4179426191717015,-0.5060017269341994,-0.16270555900749267,-0.01312028288258064
140,9.489378522503912,0.8941371481418479,2.708045374723501,-0.30109458706456405,-0.05004668511723149,0.03294183278540955,9.522452973810404,-0.3355712501531531,2.38889354121072,0.21621859422364456,-0.16982166299064352,0.5256743554011586
141,9.39870264396915,0.9140232929408739,2.705777933847146,-0.11554792573125874,0.13299478058420774,0.3322132589552657,9.512715812398405,-0.36417627476449427,2.3939898864224256,-0.3864751501844708,-0.04125859929285472,-0.07693430712559765
142,9.41703791148559,0.8707521025380383,2.6913269972460534,0.059055775093432135,0.37418056937783556,-0.15916249769056454,9.507544489106236,-0.3928567055405996,2.3846396716382117,-0.2097985129481223,-0.34969565928154467,0.043799864512532614
143,9.399540584026898,0.9143551582768574,2.7623073511343734,-0.41610892094298685,0.19504873347793797,0.27684020152903455,9.5309117703788,-0.3644895749362421,2.331431661323197,0.08975162689553531,-0.16876349854646294,0.037936999869301234
144,9.423101420863887,0.847445748168025,2.799661407017272,0.11662984480292567,0.25154189175233765,-0.2812004070348642,9.474840152142903,-0.3351557783735669,2.394971572818894,-0.43946654998820744,0.26604192954142775,0.10641359652595017
145,9.380006431433856,0.9000987858439705,2.74878160326867,0.3593494445783218,-0.29647818828224093,0.14321245707910435,9.50875386147376,-0.29236889566889257,2.40350658430872,-0.08590391124153623,-0.16689558708032085,0.224663474673822
146,9.413158422259812,0.8759058540820931,2.7479660626215208,0.05864341428918917,-0.1127103146602742,0.026301376454135397,9.585111732475191,-0.3503048088365234,2.4444910775557545,-0.20380586850304017,0.07967045821727528,0.10312933678195281
147,9.447415292736718,0.9329752317245013,2.74674248772388,-0.055575742636752926,0.2544203624723661,0.26943541938613214,9.493710587771718,-0.34967770208172216,2.3897087445051075,-0.14575232716714664,-0.04365453778561804,0.10268259606477917
148,9.446630542271487,0.8803660819594158,2.7422957251120272,-0.12778555067551836,-0.2960307397467453,-0.3337435378285781,9.44582818810847,-0.34930893235290217,2.376698835651072,-0.38079202411412516,-0.04116843595437104,0.2904055213376098
149,9.456578376293065,0.8471534956427021,2.7987258562964485,-0.06495693215201978,0.008621178069526371,-0.27612758557265915,9.541568214412777,-0.2879737227737074,2.359633960590976,-0.08035388909649503,0.13981417096299734,0.34575297503712066
150,9.412368836377082,0.8280491847196533,2.7387845132209976,-0.19154550536915307,-0.053371284329584226,-0.6988652020008408,9.48025947636292,-0.3303081684897972,2.4377783090766645,-0.48890005073319137,0.6347736152709862,0.47312598262912997
151,9.354784791165136,0.8142097815068454,2.740460320500899,0.5931732549158973,-0.17749756285067228,-0.34854634502700615,9.537004506929136,-0.3451998312622343,2.4123827031065717,-0.4381109885456645,0.14348400781773912,0.29058653753006813
152,9.412753958483444,0.8614824802061645,2.7339057143439183,0.9512250648207837,-0.24044989899710567,-0.47675023435692404,9.515956935584544,-0.3835818042299557,2.2984616799938693,-0.7330870105544339,0.02396324595102217,0.5410624578769473
153,9.531873498964387,0.9505975716140946,2.617049588915134,0.41508297871610506,0.1282629419577528,-0.3469386549573416,9.616747140647,-0.5141107702612128,2.0906771963306814,0.9533278297746997,1.2950006487860444,0.8743032292470485
154,9.089413709998075,0.6796384997066599,3.0407094406788002,1.5429958238910149,-0.06325556741374229,-1.158457596891652,9.49402379528063,0.14308412544604168,2.4221591562706073,1.4591849595206863,3.620459086242728,1.0399172957978187
155,9.545479533869177,0.8550908471429174,2.6548149570923907,2.680123695993299,-1.2855094225475459,-0.8686875313812575,9.194104597628185,-0.30793111232646553,2.76542609489191,-2.9019161112024867,-2.5913136168849236,0.8340529614363434
156,9.30363216826096,0.8960696221028219,2.7650763612528073,2.0231942483110275,-0.06509017790337139,-1.1676500253431281,10.001376718506922,-0.31232352114490247,1.8315024130153854,-1.8670102590152307,3.3486195244252435,1.5874526558828166
157,9.371898311291574,0.9102680117087538,2.8385058101499263,2.97029438938641,-1.7764398756876336,-1.357801980409994,9.222016139952682,-0.303518910829974,2.712140105592323,-1.1268955276640336,1.1322629547875396,1.155591951200246
158,9.541435640448343,1.0218289323769234,2.5504712716530644,2.3126317282241295,-0.7989894060501488,-1.5941913270762185,9.606884720818314,-0.3413145035836295,2.2911134803458926,-1.480106406445235,1.197514028477019,1.3449632517753511
159,9.299791362375197,0.8632035304257119,2.859593720937638,1.6533882504285868,-0.9178157149708408,-1.4591482102556304,9.45708058673359,-0.44546188556380545,2.223814000664374,-0.8141477155154767,1.9267754819542378,1.514256007507567
160,9.519421268316817,0.9419645588970476,2.7541113016976606,1.7710850369847002,-1.1620809444000404,-1.5206648521933983,9.573600737022934,-0.40309291972094646,2.339884390774447,0.07732590304826854,1.7950163540266693,1.5607972590922974
161,9.403374422002036,0.8854113492749092,2.7246314349283227,1.5341765663667528,-0.9168912696575073,-1.395942706553239,9.653729831998175,-0.2368095209760197,2.160732282808719,1.763121077312178,2.6367316437079573,2.2021376598306204
162,9.346715354362866,0.7863591641504638,2.868062821691518,2.364194497815033,-1.5927369106067655,-1.8336086905401487,9.211653989654964,0.017220648275539558,2.7786345272509867,-1.6321102599104045,1.9354316491684112,2.508160265153478
163,9.49702045930482,0.6555723085034219,2.7984830859590675,4.5105760194184,-2.6403581107295793,-2.4161072338281078,9.416764694783188,0.12532779476362246,2.705968657657404,-6.285201504064418,0.32740104604711046,2.9617315692017834
164,9.344473879631584,0.7236642892421159,2.7741591524043585,3.7911817431096346,-1.6635172921787165,-2.7730387382382946,9.295123299905102,-0.08419247859233397,2.67629298392937,-8.616703411967018,-0.20084461324275976,2.636291200803424
165,9.347182108135499,0.8768775353580529,2.8157881508982654,5.5096505304125705,-2.589775152844471,-3.956068335531818,9.291704766244338,-0.1268947247017819,2.800589927779436,-11.322353302936461,-2.8717846241710463,2.877334233377374
166,9.336948563281975,0.7102923566509934,2.9252435714204514,6.766880846538997,-2.413821883323462,-4.285820146522803,9.48579307783101,-0.3779674878503917,2.523648687836726,-13.233556510662185,-2.9135471790592344,2.420126913326113
167,9.439640493258548,0.7844455945933091,2.6816692134485347,6.9281671120423685,-3.453589763113858,-5.133538084503816,9.455333803741441,-0.28167636715811356,2.667511971189368,-13.596876449825002,-3.5232032634034485,2.490149780363456
168,9.517740378872228,0.4972042420683801,2.727945130321408,6.98017018091365,-2.360658996307123,-6.175215414351603,9.50197465806998,-0.5791863546894044,2.451988548089794,-14.565875400336633,-4.126848930373768,1.8355161240751996
169,9.363445140533214,0.6045746559542725,2.873151082613477,9.546665588628958,-3.1672393332109694,-6.889144735872013,9.557219103923346,-0.25921059407329944,2.435530757694398,-13.789498095036109,-4.318748847247967,2.1905830043820296
170,9.499677630709341,0.9276252201301647,2.7264531995101504,10.562338981056858,-3.1120388105734196,-7.274059138310185,9.472693591417165,-0.14843013112871156,2.456727503785749,-15.281509473193791,-4.732857364246271,2.217853455950147
171,9.398361040620303,0.8378176738305523,2.753269813822259,11.031822741547343,-3.4212785163230084,-7.8893386560347905,9.671857477551264,0.09885912903508576,2.546265108564264,-16.46526407841897,-4.536525459912071,2.482220384011472
172,9.508780556762543,0.832270867798409,2.783195356886124,11.80795369316562,-4.095065528218894,-7.90026332986254,9.432141269648255,-0.1763088288709479,2.644073515933278,-14.79828878049834,-4.982828426820108,2.8842242360217467
173,9.45582206790159,0.9039067060277965,2.6948005670930475,11.434656056244878,-4.522740907472971,-8.619887858908152,9.370686614042192,-0.37711513193676,2.4790633482634945,-13.907832431727574,-5.543838995468822,3.177492265803838
174,9.50314085283062,0.8509906744337684,2.7078604425471897,12.028393391869114,-4.5879211745895425,-9.056723489276665,9.340532672139169,-0.49174442027511067,2.4466956835407165,-14.213202612737495,-7.012473773830172,3.801164202422485
175,9.415901886836512,0.7514422944679223,2.7249025410319727,12.624948701547854,-4.469969617745481,-9.373142577434338,9.296102577081015,-0.29499613249604734,2.547781887009473,-15.153719676125688,-11.603034930921655,4.2651383221412
176,9.43342470615682,0.8571714181431137,2.841743165747273,12.613321078674877,-4.959767447830954,-9.977968264851592,9.479252820151256,-0.44508633048675234,2.4428028973827325,-13.743893028130204,-13.8865848559794,4.862862824168317
177,9.779818618393078,0.2663187703402578,2.8677807993570705,10.378437844245074,-4.527076886260423,-11.092501573031827,9.511839683912227,-0.3643280564294843,2.331954079920245,-12.08956445136407,-16.479156387301824,6.131423485058471
178,9.186985854728194,-0.2561677868424421,3.386360821798674,15.74482705032269,-4.378892148345996,-13.752303288544345,9.637274469772754,-0.38031578513530817,2.104176029358022,-10.84917589739519,-18.63812251230221,7.221478521781326
179,9.446769603836838,-0.04862178249046438,3.288582716884931,23.368313061815634,-6.542407336118112,-12.914443203513821,9.726745414370198,-0.42902885213167613,2.054079941195899,-10.415312408467573,-20.42003094934065,9.732126572023667
180,9.043169056241519,0.18904303291374394,3.2799237378200363,30.66363114514416,-9.685960357767142,-13.584123222958816,10.308042708716364,0.8578668831184744,2.1645398001603167,-8.544704397540626,-22.52116371867207,16.996300647187372
181,9.387003100534232,0.16013104077044363,2.9358215714271267,31.164146424881455,-15.996426826078391,-21.945156842304876,9.984959806593904,0.4874819951749336,2.164567301798952,-14.478873164089602,-27.48746267971723,21.83344654647315
182,9.879581205434768,0.5789674421155737,2.5289242952726774,33.71000680865204,-23.288300607453873,-29.610187627574028,10.197743806630008,0.08815263942664557,1.9590096991135604,-14.030956849002303,-24.790976951761216,25.61091983367497
183,10.84914838859664,0.8466289897713223,1.5108451027670269,27.75193766330806,-19.264129475857168,-36.57233732524792,9.902526776790735,0.05339066877890599,2.3586247725558724,-14.697931259898716,-24.905291394479043,28.745828980786573
184,10.013576733153608,1.0037929357670448,1.811559760096003,21.220936841973515,-15.901908042506964,-41.330750236516096,9.772441295126201,-0.37638329248178076,2.215036216818999,-14.25668029076069,-24.357100096497394,29.899354793958885
185,9.670283362046325,0.8075266501666616,2.0765730299215677,19.787000390072844,-15.118892964444003,-45.381894511754695,9.729844496003192,-0.3998410212212197,2.254440165251468,-15.076940809634005,-23.551184133739582,30.093697861165435
186,9.662623547581429,0.6201246414969905,2.7044684357533186,19.371231736650053,-16.409623347789235,-48.7104272177877,9.549176720835279,-0.4077673355852668,2.3023720582292775,-15.373563517763033,-22.93506159951539,29.66758361305691
187,9.596664442634,0.5355240200806639,2.8528059014521947,22.035924131752672,-17.222265483216663,-50.946417257504564,9.616154914669194,-0.44171961553103384,2.3387931499945926,-16.380861010724885,-22.37270447797611,29.498692219674755
188,9.74579131894347,0.5012942614145555,2.938335673067898,25.02039426540585,-16.02312823347398,-52.714882956365244,9.675852576653146,-0.571569926079414,2.2610277062946773,-17.268612941858255,-21.137085910234628,28.835035710603943
189,9.70599916513815,0.740676807026945,2.938338423257931,28.98347154877639,-15.249698968859047,-53.04030489955435,9.546307791675574,-0.5849451609744198,2.2168657560680467,-17.984757479229806,-20.94593099010944,28.540321276250072
190,9.824904385187157,0.8344614125035249,2.80261515671867,31.27420700588492,-14.101249280467568,-52.90975265325829,9.69491513253853,-0.7731560869004792,2.055621378663018,-17.451695572998776,-20.276904534300698,27.85473200334561
191,9.662659701908655,1.1022687263195212,2.5844082630196894,33.067401280940345,-13.07702219129959,-53.923932256409884,9.54957155724771,-0.609121924823425,2.126120059887981,-18.29524207009179,-20.146097832931684,27.072627556547943
192,9.411482145624655,1.4619684325355256,2.415392530736624,32.81666145756499,-12.835483265867985,-54.77169617878974,9.584598267434254,-0.7484645876704353,1.996536853429177,-17.286807461609186,-19.911243917123837,26.686960918934023
193,9.442971548348943,2.116112838364679,2.3219310934983075,32.21077820527357,-12.955899805616104,-55.12387660532578,9.5148317981341,-0.7905314659300816,2.151294173062227,-17.409685980172924,-19.05173096385732,25.76692948264185
194,9.299613047038575,1.9680884806628107,2.1475411875318007,30.389632580141342,-14.23078043504275,-55.931449622908154,9.531350883526803,-1.0060173338689593,2.113069504522976,-16.526354330938688,-18.938400400233405,25.077699964421324
195,9.770310783347364,2.4184005001655757,2.1746939991088663,27.43990480321574,-14.28017708158692,-56.48172328409603,9.3730405374655,-1.0144024076456677,2.0553647017123233,-16.42522961084191,-18.143046213507574,23.29686878327066
196,9.578135139289756,2.3911961113994695,2.1472085218987154,25.96843128361421,-12.258237605401426,-55.31041139645575,9.373979856459906,-1.358917379415521,2.0130440405946364,-15.361731359566614,-17.418336776568545,22.234550659560238
197,9.099088256306453,2.499649161887061,2.009300375106085,24.791302561845505,-12.247205632489989,-53.64557294874309,9.34373108374052,-1.3398587009131147,1.8849419698385441,-14.856307140903297,-16.443549362519946,19.527516404530523
198,9.133381107198991,2.5900135577926537,1.979644077461687,22.30531332031354,-10.279790086806727,-52.02850371918478,9.38174206565294,-1.3831812249419817,1.9030797993030992,-13.921182211721659,-14.982152607452045,17.30094159781863
199,8.793059456921592,2.388233999867567,2.126778079850622,22.09263932187332,-11.428065467591667,-49.584900760198344,9.414254134969976,-1.5611607833650036,1.620877270210126,-11.744359846410394,-13.840315666070126,14.809529467460145
200,8.964454279565796,2.2533020148254663,2.1933005041651397,20.44997909414671,-11.471414269203203,-46.87716233491058,9.362771529898957,-1.550999006013959,1.6843286775883135,-10.15621957512943,-12.324422717399727,12.449148670206096
201,9.338835267865699,1.9510540529894596,2.5518291354283784,21.20689942163763,-9.822267807627634,-45.07845436035754,9.657630214847051,-1.6921135257579962,1.7147122991136843,-7.944853594178108,-9.219593811548915,10.683687359070749
202,9.128329191709152,1.9623683742235436,2.5435293816079905,22.61794744975357,-8.969030414544056,-43.347948043375766,9.494050518722922,-1.5095387914901166,1.494469601705989,-5.869285858244758,-7.52452390943454,8.926704352454152
203,9.117789627402752,2.3395989037947467,2.45252926204809,22.832370499055138,-8.230878707051907,-41.289296347848165,9.619073152375506,-1.462654483207466,1.5339164955357625,-4.2628945854327105,-5.027108970127121,6.990523903826923
204,8.852079496579316,2.675578492745808,2.293456059695494,22.276518579003763,-7.669357779329844,-38.42393411234224,9.66090810026041,-1.4918554653773812,1.4755403831034037,-2.5254959617089265,-2.162780102720509,5.540455722296634
205,8.839168471700344,2.9805538757140413,2.108600274877903,21.889961894726543,-8.693103981328218,-35.61268986623927,9.682772190806563,-1.5162754763219852,1.3508683725174233,-0.669340261528518,0.7616173046103552,4.026885164795712
206,8.888599563238387,2.8742402469882045,1.9898885487209563,18.987875495198093,-9.095572554251936,-32.63473985526931,9.668585066499945,-1.6402881600028947,1.4422015571170956,1.6032292796186363,3.9270235679111356,2.3214486715855496
207,8.942166024610133,3.097617714503494,1.8459667596776312,16.26195493335153,-9.317341266131134,-30.02618187375916,9.574908431322394,-1.6105379223251712,1.5449621867313088,3.3423665844922117,6.546058740402515,1.1786020545589553
208,8.915612240067881,3.153832979686428,1.615518532092843,12.347422958965035,-8.313781113828005,-27.098071139130106,9.576971822449147,-1.5194524750682532,1.630657941285426,5.009313896200841,8.184419162059104,-0.020150080639981374
209,8.887501081066805,2.992665080829031,1.8055678921690983,9.392873814093077,-8.227517614798701,-23.81835363425233,9.498561156220251,-1.3798281241698784,1.7280126937787232,6.379184086231898,10.009726493028833,-1.3370417622881179
210,9.028288704144837,2.4721200556632423,2.100954049443891,7.434344386816944,-8.273678644453856,-22.199115366361312,9.563214313535708,-1.260511775119054,1.8358073626725653,7.448094084357148,11.776778212992603,-2.8323051485175825
211,9.30867803409462,2.2217257955455123,2.202664847935109,8.532803535082088,-7.482710267561169,-21.31355946781391,9.504194325154462,-1.2308223600870178,2.0283214769374376,8.397734057319168,13.115822365938955,-4.017572541626945
212,9.409211758923792,2.2941415309412245,2.4634357629949863,9.405469170429397,-5.835453895936772,-19.82101534095079,9.570091011051097,-1.1790091762559132,1.9309375330744012,9.924774971811976,13.467364401427579,-5.575990017204688
213,8.877763451722835,2.270012039567768,2.4642825821917844,11.666239329135479,-4.4363011109298895,-17.68485179301965,9.44830171537033,-1.1823569239394014,2.0918192879013824,10.044680335752213,14.815013514846651,-6.563413558249891
214,8.725435457467778,2.466559268401221,2.335673329212653,13.331604640860213,-4.371355781179694,-14.61650653537321,9.457926730170456,-1.158546484736987,2.0819614827070625,9.797078977590264,15.43036657655506,-7.663986577361937
215,8.80625398676323,2.63399802518023,2.469307615493472,15.057155551378207,-3.2113701371791143,-12.042915925579832,9.523894006520317,-1.1926738973731272,2.046802797739093,10.684956228222546,16.0955890877594,-8.478015103701974
216,8.87375397665577,2.2656055194172016,2.520969651596721,17.074092996051963,-2.967557066116696,-9.65160101666314,9.599507874738201,-1.1791113478637514,1.9874177265654562,11.215112402817088,17.009701724201022,-9.531900057360321
217,9.154690874325444,2.2693469065736736,2.7487331823062315,19.622371611403427,-3.0934553236747386,-7.754911933621354,9.57730414840212,-1.0831228211659916,2.0403520834240796,12.28182610855458,17.795641483003873,-10.4106534327061
218,9.094505971425223,2.3400565546005363,2.495594575528384,19.93954224062193,-2.8469749911970474,-6.6679547340756375,9.761549486591813,-1.0802182800406253,1.9111763639655568,13.418813455017538,18.213466296538734,-10.309383566534878
219,9.068199784806167,2.4962121854623542,2.1892697492511957,18.393201253639393,-3.322889449606126,-5.418429778894794,9.855457814938118,-0.8416531899328965,1.984520380831506,13.379749380342734,19.072916406893864,-9.638659083187756
220,9.094347394278273,2.8392052741016527,2.021995886587671,18.28927567408616,-2.7096820774928765,-4.568862256790655,10.032366887996297,-0.7905352272618185,1.9795722323464864,13.419076118534898,20.238866366141107,-7.990878744377459
221,8.927903663019535,2.94563593725645,1.9931701024500723,15.907044653260236,-2.6333462212387766,-3.2458812055780983,10.101037729517952,-0.8871377094549208,1.8394360969152994,15.320052622983694,22.244650257616243,-5.88853055516044
222,9.06285432167868,2.980979281448303,1.7017443621358548,12.74463137399816,-2.7964014663092063,-1.784416781609495,10.415256992701025,-0.9328606293952343,1.8261389311448875,17.00865342375243,25.29592888430844,-2.929687840045965
223,9.177825300847525,2.9277552992502818,1.7600409838877065,10.364688826337463,-1.258992500035097,-0.9572618910627505,10.018943540892574,-0.7672521248014474,1.688689723931628,20.682812702537575,25.811243792181852,-0.42250988944123863
224,9.122352991813324,2.998395541471719,1.5020579422329488,7.032349185675578,-0.08026382553883436,0.6206629816773259,10.05734317198025,-0.9919632839938171,1.8551590470299548,25.332501234279864,27.053485624991513,3.044448478463895
225,9.052195830516265,3.094735135608004,1.5224257925786164,2.5616215364644117,2.5033799537725265,1.7252869327723381,10.241854564223752,-1.040672980059643,2.1175324881583046,32.026717909237746,30.728026119456427,6.037705626095859
226,9.038668303154017,2.8384476885047447,1.8161915076672266,1.039919507905228,3.4329397562811796,4.059549208610045,10.28971278080554,-1.4525758376690678,2.064509162178025,41.69956878962389,33.329800233577046,10.086742866250988
227,9.241568249013694,2.6501441586129255,1.797248277492163,-1.3997962996558322,5.57925918058252,4.640836489471137,9.577767197999105,-1.8922200944323277,3.626832228334723,50.30845522944631,35.32933460231302,15.075085722031513
228,9.136728849731492,2.489561299193699,1.9753036848942072,-1.975723050049907,6.683228901106368,5.861121394270274,9.046911762333199,-2.3872315345778223,2.845110629983364,63.20932685863865,23.174872145547585,16.13032677045414
229,9.149231319759444,2.485886846745475,2.1776241319822236,-2.475181189712905,8.582209300809737,7.865350394909797,14.936960402037855,-6.630710703528401,3.2170485598972647,65.93311566324219,31.614373209478934,12.493617072325346
230,8.96598370900597,2.64094960048839,2.2621517626836303,-3.766054926425818,9.690746355665985,9.464478591428856,35.3678006734872,-13.753749831981636,0.8473103283581118,17.23221267602514,70.81947179509542,-12.443288502371482
231,8.766339955889762,2.6498757146449488,2.6682914208813355,-2.8254310873156743,9.149042328333763,12.48962270861958,36.706947523434614,-17.205461215732342,-3.3741274775588335,46.160746844328145,182.70697594239005,-21.673060306329678
232,8.699316787124522,2.5125553216848755,2.7933389848726162,-1.7069441373406282,7.876123261029075,15.698504122952047,20.94025692580327,-14.167200102496416,8.738500241497897,48.509352491857086,195.9744310158291,-41.60414629984659
233,8.716676343112292,2.504114293917911,3.0049713534202636,0.1795590932723753,5.866417937358742,18.34972636541889,13.211030554313885,-12.677464066821123,2.9085220720248537,63.01141693638272,188.6975435247983,-56.39226547504633
234,8.723481901917314,2.469657212591259,2.849416169777583,1.7072769394534169,3.0070632487215314,21.50001933678298,7.079175282800784,-9.977934093267654,-3.4354270256580435,64.54604581596521,163.1622080805008,-52.87941547485098
235,8.785931563061567,2.744979564812142,2.6107473628875133,2.3921807184170514,0.6985211244725654,24.23769013844465,5.7023236624254485,-9.263238257908556,-7.170424814608022,49.74236933825923,139.02713747790085,-45.05416636360494
236,9.008422545661789,2.7896571276535695,2.4063728273950575,2.6645341948636436,-0.3891365904753272,26.975649077413433,3.907703101321045,-10.394412725694501,-6.4888893993273875,28.213367220963487,107.90677627434017,-39.65766092966038
237,9.090048364592365,2.98207033554377,1.9224829959959544,1.31481615052294,-0.43550551088179673,29.191637920703055,2.8577999026323138,-11.108050053847954,-4.692399644931705,11.79251598212823,65.2623668493886,-37.3620918732986
238,9.466479046361508,2.719552064030866,1.7340772751441011,-1.0610601388532142,-0.296057928267427,30.939766426907656,2.829215947261031,-11.904388405822557,-3.821226424155677,-2.5101775624148996,19.95941760890033,-34.54071146837439
239,9.71574919292119,2.449430443903831,1.6906516543201033,-3.8702500907295523,0.5109872158209477,31.475920954744403,3.100167776849379,-12.978200998117396,-3.850434394261763,-14.128943673668555,-14.082993082488477,-28.50564456617688
240,9.994780639448075,2.16046323167163,1.7360250516419728,-5.808935797344463,1.12374352914655,29.989636316472044,4.378276850531876,-14.165395768467448,-3.7590368538554033,-21.373349608150445,-31.546715299898,-21.757594252039105
241,10.125492004725105,1.8680101447756912,1.785565604170794,-6.727408947857737,3.374488727032592,27.743442518775584,6.646423006405593,-15.086502846812389,-2.9839874169079645,-26.901029857714605,-33.57084492442389,-15.960897679248063
242,9.964905000754609,1.8797366257421297,1.9172528925387267,-7.94805958446734,5.138959426983688,25.567013834402147,8.333187461171027,-15.610199433816712,-2.0935249815756083,-29.133901080790213,-25.387119373045145,-12.773465767204858
243,9.8472872653591,1.962374559501409,1.976715528149831,-7.596250313161617,7.264572784549978,24.026541816539776,8.085524856422461,-15.4296385307791,-1.509451561452331,-29.336755837390765,-14.036988513796253,-11.592635809321255
244,9.883948699988236,1.7474598969349753,2.066231328693875,-7.9299915196980635,7.318128754286869,21.66118789893483,6.619913128168397,-14.852357539919396,-1.2985452263571398,-29.882218545449668,-5.383467250638484,-11.251467000807617
245,9.898972775819066,1.7000587408282255,2.1555753092370753,-7.853623658060205,7.002103398446151,18.742914686213368,5.148471316792117,-14.10808966805974,-1.2739840857720621,-30.568236983661205,-3.0466036317252043,-11.248830806468696
246,9.81427066622319,1.8534980399892091,2.110105098879751,-7.456710599479972,7.724281891652751,16.78484811341913,4.178820144940595,-13.439490066603335,-1.1341349582455265,-32.20899309083542,-8.551865198248612,-13.034350627914993
247,9.657649048130986,2.050280607296079,2.0146049894211435,-8.847604802676168,8.15363757058104,15.897269329467623,4.056557432508448,-12.94066194863158,-1.0028596484211019,-34.83002185071027,-17.235811618306414,-14.177792142365865
248,9.658481582339974,2.193242195600762,1.9385123725961302,-10.059055848226347,8.338787602756431,15.068501256898294,4.330468056296394,-12.464211899645766,-0.8394345579137132,-38.77209148918588,-27.19396357281082,-15.109765928633665
249,9.644536647010717,2.141228439477268,2.0145499014501067,-11.753802626356132,8.586071533631715,14.005436705630702,4.601912191953465,-12.259506698204884,-0.3316960018598208,-42.860275981901445,-36.90415373801066,-14.142112783629779
250,9.663645432095517,1.9556317359970508,2.1845396314745464,-12.199372794682136,8.277157681118148,12.374179911974947,5.58396682832888,-11.94140877091253,0.08951154151282348,-48.06035509276907,-43.1664126603838,-10.781854553850035
251,9.582366869650306,1.7281394664689922,2.3999490947594886,-12.103100880752008,7.540204894476233,11.039068434340441,6.860549036407238,-11.922062906224221,0.6225737827621867,-51.9232165476828,-45.453803963356116,-4.828126378259276
252,9.542971467367883,1.6091636612849594,2.4345938393692057,-11.34742897510273,7.226085190591216,9.445316445251553,7.994331672346505,-11.73910855100437,1.0685285917740237,-56.09501706618184,-43.32196783845566,0.8063374014079029
253,9.429382548709444,1.6771981935842233,2.4563085527300546,-10.470139079085483,6.181621547188953,8.27947321669127,8.728833039900264,-11.471371110317762,1.5586791598728,-60.86767246368665,-38.852482075064586,8.094783367096493
254,9.227948427519566,2.003959730380067,2.446291015834196,-9.917292697742086,6.790656062428111,8.87294989369408,9.035462857823218,-10.994451132817902,2.012411714533308,-64.91234648436338,-33.347973007538506,15.489144922690759
255,9.18749880616593,2.2716082594063427,2.3754879823267863,-9.599777271466353,6.91543885292464,10.021352516736718,9.225638321978616,-10.51691230965824,2.3261192273095377,-69.27759375503096,-28.208901063371176,21.665842487395626
256,9.158496517514585,2.1623857796420642,2.4569252704404403,-8.8010137502165,6.673231121034903,11.405792869805024,9.500377126185509,-9.959141116923735,2.4941373756725302,-72.59025263190975,-22.28417173852032,26.045476777462092
257,9.109528732481945,2.1195608170665476,2.420791511411316,-8.599731318840675,6.738696405460947,12.86083978504481,9.780488904522333,-9.358329088211727,2.6762461485364746,-76.23393622434125,-17.82870634961145,29.39591769288468
258,8.924491894517313,2.3167045083166413,2.344936441666299,-8.331359242476028,6.257984323962298,15.047757601657917,9.944796566376878,-8.723359467002815,2.7421161291633354,-79.60980533640566,-13.56100986813506,30.966798920586385
259,8.968888874853347,2.426216568668618,2.333759974852755,-9.43628271736336,6.089772642048656,17.624257102981332,9.974071659216799,-8.077973608758724,2.6970943469304047,-82.71887706956815,-11.627085510831945,32.35922160391324
260,9.096370680111038,2.1867185917898433,2.4396995726096953,-9.95797186803324,5.306091647159551,19.281064057274385,9.840318995741248,-7.593728700064966,2.699818843332255,-86.31797245958424,-11.52803602270604,34.25754257991313
261,9.392447206576488,1.7493725114032967,2.480571647202509,-8.403366452207864,4.506837101790012,19.19489143866789,9.165928212536196,-6.994546671959835,2.85080577492788,-90.94568279645696,-16.140465134118006,38.703950453126176
262,9.433924340901045,1.6390259782236367,2.475210057840701,-6.911747381244405,4.193594470606253,18.681308970609358,8.37258009591147,-6.289259566109899,2.952334433559344,-95.9493141964983,-25.593551755614627,45.68773430357466
263,9.352360488823232,1.6919300524516696,2.41126710059409,-6.07011957613949,4.129246234117113,18.786964026416214,7.737130025750379,-5.8200582178636795,2.9067787121632938,-102.52787329935678,-40.05896911713027,54.739999812314814
264,9.271110542363363,2.022649209633137,2.435570587300613,-5.869606073153507,4.863695870353857,19.872935251917923,7.772809046576716,-5.523882190272759,2.871808025567428,-107.03533795500452,-56.446341432352014,64.56074288134947
265,9.128019724989045,2.266527119992863,2.2405030271330855,-6.070898052364861,5.787363006352056,22.181839217645937,8.267409666513815,-5.255251970558682,2.9245636057336837,-109.93866324355518,-72.42080871077644,73.92358044572961
266,9.011148056718751,2.439794046738393,2.26653413104668,-7.565049899518257,7.6366709053369695,26.03012947697688,9.005270491102769,-5.022091428003264,2.9993639354114503,-111.0503772466447,-84.85711537095266,80.975250052667
267,9.035555934017234,2.501588783726306,2.2419999304705756,-9.486857678871548,9.546962197171124,29.33913190115639,9.936506404156296,-4.880814231883935,3.317283282653276,-110.31977464995803,-95.043652878834,86.14889567623834
268,9.16484769630636,1.9565905048181822,2.429425348224473,-10.655924703821759,9.864748719777735,31.427196258478183,11.04474089449388,-4.678853253301058,3.630233431144206,-106.67670329859747,-99.6172734969744,90.6369745482376
269,9.47110358640221,1.3957900213539862,2.6261100725343165,-9.165278490307912,9.125534179954213,31.037748008376752,11.967582742182705,-4.437019163569334,3.9625089152395128,-101.98702968135457,-99.47942265998485,93.74037913613381
270,9.464515868672516,1.247730526782104,2.6411201394158765,-8.105542963091548,8.750276172260468,29.742490320813214,12.770411586854856,-4.094038038679413,4.173756874770311,-95.36949585012488,-94.5168967432576,94.64754497747212
271,9.40890095274989,1.3582852773780412,2.6610150334084155,-7.357066093475486,7.825838192455415,27.909524800645393,13.252255552122326,-3.753391249976748,4.288782198392462,-88.50482961756992,-87.2881739377868,94.37764201127702
272,9.342629678157975,1.6491582632153838,2.4400151275762663,-6.86894693809056,7.704052575890254,28.50900423474501,13.089120861222098,-3.1440176550610026,4.492570648735954,-81.11427844850425,-78.47144681588189,92.25533808328304
273,9.37500406034092,2.0830151489268256,2.2862839308516127,-8.220075112697563,9.178167744792205,29.92472095462491,12.787252763115253,-2.682449141604663,4.428339156793386,-72.8816888310878,-71.50451110625703,88.28932759243409
274,9.299320542207598,2.155329881519325,2.2786407327303158,-10.267695291620889,11.69585088047773,32.563473461802,12.499577115905511,-2.2401217311006425,4.368529936550336,-64.45094616546481,-65.33800910686854,82.36373725717823
275,9.279873427129587,2.055528861838817,2.350341147060679,-11.120261914802338,13.354939384011383,35.184263850060304,12.199589671860316,-1.6063217593290673,4.323007480284204,-56.36520323493839,-62.357939663876664,75.84507854461697
276,9.264638304222455,1.8984074279638132,2.4363282897866925,-12.225025356359998,14.89031211503805,37.02025911152277,11.781750642695862,-0.9999295439630702,4.395340933820512,-50.672145238472964,-60.825298594206735,69.6182785252636
277,9.31175300998581,1.70277870706709,2.5678778450312683,-12.739703737585513,15.08184112017364,38.731572696154394,11.481455793109609,-0.5571891067616921,4.455223155414056,-44.38481525754261,-60.77019341522382,64.48964858705725
278,9.340862248253448,1.5695693754071114,2.7184931135919332,-12.774478155088683,15.636160147989973,40.248803461958275,11.218924989826023,-0.16258913002349104,4.518937776258437,-39.64013348553819,-61.741397374340494,60.4326193076452
279,9.360231996651432,1.7454100815299491,2.571036110642843,-12.745315742581454,16.678086196636972,41.82272860928441,11.113022333425565,0.16847713935751615,4.568935300174259,-35.927398944056876,-61.290377506027916,57.79561128480462
280,9.453910741014214,1.7580581630720498,2.4222567745471406,-14.211796603798064,18.51910929408599,43.42077574924972,11.016970050367082,0.5042922614321459,4.637749030120828,-33.56341470902167,-61.437977860176424,56.89872129459161
281,9.351076847956632,1.1684381665993535,2.809613243225508,-14.824469373276324,17.666557197371237,42.9513934068615,11.012130905638163,0.604598616189403,4.566078830245103,-31.184942064607522,-58.885325956192226,58.68454571753706
282,9.383457850227014,0.7664068198711614,2.7822955029958187,-12.52800374840842,15.332583583585176,40.853905896253536,10.806822221003836,0.8411348721107803,4.73355719722745,-29.326519106410768,-56.388264380682635,61.52057440331883
283,9.353346020418815,1.029523577664589,2.7677785885844215,-11.46913303774826,13.679337459269714,40.05322157449471,10.552099977003367,1.1732777772287877,4.7160236885371125,-28.70470999750394,-54.42997034315979,65.60473842659974
284,9.2849914517229,1.3452792782178666,2.7069590050953836,-11.342874872185078,13.68033110214826,40.476457292866115,10.06897545897442,1.2916906120390999,4.542854735415534,-27.425558546321383,-53.030212698114035,70.29235743416703
285,9.32094994146467,1.5836896081667715,2.653004721124529,-12.92309565155676,14.975796765097519,42.74898931038263,9.850494624118507,1.4417248775485763,4.510360389236093,-25.974047782277587,-52.91987698748478,75.59470607131652
286,10.021026643884307,0.9278545666545912,2.711861336271169,-20.52285315743554,13.845110200038036,40.83683052018423,9.665220995367573,1.7594441097372702,4.691453365708099,-25.519609511010806,-52.798843210547126,81.83260552937902
287,8.022157305857403,-0.815141305182511,0.19324030723742727,-25.249675837637657,-12.75413845639876,12.094258235485034,9.574545947711407,2.023697038482821,4.850962085194971,-25.30612290656166,-53.96295405708412,88.87600453411254
288,9.901004763056326,1.5457339520708413,1.1382552601118647,-19.026316085791237,-5.42408050646803,7.182789138229394,9.511402848408308,2.2302193666118786,4.97163759745711,-25.018331849031085,-54.75941790992811,96.59015955614328
289,8.690368246608184,1.5581321680132794,3.0713649047078393,-23.507663051934795,2.81320755956712,4.967210317713611,9.588409358717872,2.2487983362713204,5.007681703461581,-24.409667009187384,-53.04439974100693,103.85958617867736
290,9.284788116900074,1.513538412908464,2.8617084822225154,-21.429530976214217,-2.1906187768782495,5.56638540334088,9.799480142034751,2.3188703607547376,5.044725087939945,-22.6750525169776,-49.93082809698063,109.75674816308737
291,9.97961286456278,1.0391089390408959,2.0715541093831153,-20.98579482157305,1.6478328006520082,5.533923402458401,9.985832025486994,2.460619395023225,4.972507961012844,-20.465209820330617,-44.49228981134991,113.79906026066976
292,9.705653544090818,0.562691467973734,2.755372241516655,-17.969887274522456,2.7326919449672133,6.015044323025946,9.957946796880147,2.8104397667540475,5.130129367666421,-17.088175298873146,-38.14696394210493,115.6745408061524
293,9.588804912045516,0.9879504778381429,2.5493027847264607,-17.438573589433968,3.5188944186807847,5.026977815243027,9.79339261751154,3.0748897469557357,5.124577677847895,-14.244042644816542,-32.71783481337922,114.5624342665257
294,9.568426595826956,1.2225241633835064,2.572348860389008,-19.90957582928264,3.283984584500672,4.4686007940443915,9.726675479128598,3.3380947875654328,4.9540357964660835,-9.94676773185187,-27.12079860605289,111.09785555853682
295,9.623116534176802,1.1971821946992067,2.4106983869131744,-21.719745121893514,3.594033313791382,3.711579065179211,9.753495925652949,3.686129268778606,4.594584950199601,-5.666738289260932,-19.562121561874875,104.99227270036621
296,9.819475157900277,1.1955810516866914,2.4240618717869524,-23.263461747379626,5.856817002219065,3.909793423339978,9.625927961577453,4.2795414375074445,4.286627126734449,-1.7266896302889887,-13.105187074417254,96.99893812267396
297,9.81869524285255,1.1382194215189603,2.4243498959637697,-24.808191265537374,7.145666491035189,4.479051662379411,9.421448318008764,4.720686669736086,4.038359603298139,2.541780682702096,-7.143075311119353,87.53237497900042
298,9.77279531656857,1.1327088211318812,2.237145357947853,-27.496203419762526,9.108266058554786,4.580046357074679,9.077593495211277,5.210563473309168,3.6840187057033478,6.193155473616709,-2.3404269396152055,77.53014067510361
299,9.762367537295964,1.2627550588761816,2.382932581850942,-30.365369246110543,11.67967818654285,4.31566183913579,8.676750434851161,5.610236352577119,3.407796803274364,8.234364359611819,1.3136797718808175,68.17252847390841
300,9.44829003092911,0.8600699149781347,2.549115907336632,-32.104405780229506,13.087014773960215,3.854172489773879,8.42837085429367,6.032473255708725,3.1034830008265386,9.769470327227115,3.62314408180446,57.910616406973375
301,9.413193584956433,1.0157330726908125,2.945256614802482,-30.66211284087177,13.44576209827808,3.7626968230456317,8.159062773571094,6.23489284865834,2.8144917284375737,10.531010401871795,5.02091105795881,48.33923178360964
302,9.229279653538647,1.1020345703073704,2.723785613301387,-31.856582503274865,12.905064641564875,4.458468447555037,7.897106347810754,6.432944497080002,2.711487796038825,11.092183964641158,5.377690338047127,38.16325000168203
303,9.416266279122596,1.0482949544766043,2.79892062260436,-30.7158310779132,12.109170185112035,4.805996913894685,7.883136059501217,6.519076285503464,2.6782862617848586,11.648163960549532,4.5082517331114005,28.604719308973145
304,9.484885828830182,1.1957563834692706,2.772751534836257,-30.41231776752041,11.804535257124995,5.166850175160331,8.023450500442742,6.585111200643286,2.7745630625217212,10.550593137382707,3.533681223925023,19.93209711348514
305,9.402507469439279,0.9135943663547994,2.639693296909073,-29.620433583536357,12.169077627894204,5.818065233824641,8.36798273488985,6.606293549693194,2.8366866788434395,9.229900824746927,2.9299037772869676,11.93525211408723
306,9.379948976855093,0.8192513081096644,2.819851409128195,-28.3677147132309,11.61368843621372,5.492974505394345,8.544914450334021,6.652640277980729,2.8365210406069106,9.064636002989788,2.621563784881815,5.325916578474806
307,9.42865269913051,1.1586800316918753,2.8876061867642866,-28.362652092495882,12.101717221577234,5.611362772317203,8.759615006012297,6.521918137835181,2.9263677122904896,7.935696944506043,3.673711919932053,0.7480300864453882
308,9.101385995394615,0.7851051638512935,3.105865082983784,-27.11045042006413,9.842288981891297,6.026729671022402,8.997775010484265,6.3575020547698475,3.010863051542773,7.31959661634299,5.212362422311372,-1.81989951734817
309,9.39224409436173,0.8820562704091485,2.9464632716269548,-23.88643831609366,8.60670261520212,5.302827306976158,9.28500947119149,6.154722459597719,3.2182081583702993,7.6383919731050245,8.827548511647601,-3.2490361979680946
310,9.160748282208608,0.5932740089349756,3.090955357912697,-21.009010039614488,7.071391440784822,5.681951460384388,9.587068771626534,5.842083334724014,3.5351591869653207,8.317540139690301,12.255260832527632,-4.316183726801473
311,9.162066911860235,0.8077440468366651,2.9815272174491128,-19.646970443688758,4.809223989174029,5.365708855919548,9.942704495859667,5.542654555308016,3.583280217899451,10.152864937191259,17.940570042937946,-5.4737354064306505
312,9.121874138065445,0.6856338719566691,3.289555131064804,-18.81600686816385,1.6389561045138987,6.098983584059678,10.10671685594154,5.349738064321409,3.502778298643964,12.049297857858521,24.7901161890034,-7.433153527149193
313,9.108319334171643,1.1111499974763865,3.2738211978434997,-17.883170993307296,-1.5363826595725576,5.55359845412034,10.095364357191249,5.26355131275218,3.4316491836020897,15.232919804630974,31.196388991787167,-10.453608618557029
314,9.18321138121687,0.9557612566602619,2.9802485545804354,-19.531659875509156,-6.342651125561328,5.798717868476222,10.124672802879813,5.1583769050921555,3.5503967365199642,19.812559075877033,37.34204373850381,-15.333901306179264
315,9.514792935665284,1.345308203278029,3.039853953978934,-20.123933435229468,-8.041278708650662,7.097860025758874,10.09777058006222,5.197115972276005,3.6465358656630786,23.821255335218552,41.775508345631316,-21.176982053783803
316,9.35802377473172,0.7204046684638713,3.0471413711014086,-20.764908391455098,-15.289550253688795,7.520974531863507,10.24528170320595,5.343842522814637,3.522861214526061,28.02825413441463,45.34725174485573,-28.918134104928892
317,9.789534599662328,0.49257028557105276,2.3433306424340246,-21.349330274453614,-16.437999194726963,9.181822975059507,10.34533317479366,5.600839691081276,3.3429867104374598,31.512016975651733,48.12896604675276,-36.643576135004146
318,9.670271311430445,0.7191241876697301,2.4822902088629655,-21.105771771446072,-20.758308302978232,11.332507279795934,10.520190845930111,5.842608545378347,3.065614405048432,35.35581042936958,50.5392403609875,-43.883750401159546
319,10.269500905137738,1.0596055274864413,1.9172471150359787,-19.115206127513886,-22.52835993559614,12.764516630017281,10.527471173108669,6.090445165866178,2.740310900979566,38.55594534465117,53.20164713918454,-50.62405417517589
320,10.0601347979526,1.7095134010723574,2.367812951410477,-19.876784812192387,-22.82474452523922,14.17953456377701,10.308810264482894,6.249998549117358,2.6887075640720393,40.96742136825163,54.093480395076966,-56.97606959911932
321,9.432308618288692,1.6478948638016262,2.357392434462841,-21.19372139832322,-27.746791949684585,16.668664150564478,9.9980042083701,6.481677501800347,2.4819523296931942,42.362636660355314,52.972151902732676,-62.077548881597984
322,10.063484105026554,2.030437463452896,3.2711004453425403,-18.78027808004066,-33.53449953223581,20.001775411420425,9.795521151369956,6.540289668855775,2.291660033629302,42.980160082362666,50.20331854060458,-66.17919593145653
323,12.882029777957381,2.274871685080507,5.005538464477795,-16.93324683557428,-33.57414052874497,27.26119462960644,9.641614950772228,6.651180101579045,2.128577825303782,43.90099145800911,47.06369330264943,-69.61087847048873
324,16.0611672079752,8.741828517613483,5.305999256929511,-6.6588177695516535,-30.88930613449377,55.622370949048026,9.708565175629664,6.76525284265005,2.064460950521416,44.292990569277606,43.68459103930212,-72.42024350412623
325,15.214634994715583,2.604617448134493,1.9366299572707675,-9.30095060162717,-6.8250604861608615,66.28699901986718,34.75019122881065,-0.3594597292083949,-4.508519772656462,-35.064326130568396,-116.79412094215249,-170.64596200947264
326,14.722421602765047,2.0964747246797364,1.8019517204818996,-1.0550769324436238,-2.4287879870971816,78.38142248331441,-3.1777516053992625,1.260648250190692,-39.739107012484524,11.925906559985265,292.2129148605578,-136.03578528148563
327,15.28829086397405,2.4022482421239575,2.576457671717959,2.1074544207484958,3.881885113579584,90.92702738900648,4.718920521751857,19.129417293306677,28.34268011562917,-47.53402395389613,123.71862237176376,-131.31556084346528
328,14.799740364051495,2.879003646121482,4.048906967329993,3.5781819611447085,12.26457583326489,101.78964654947279,31.670018912133575,-13.83611444727777,-15.396859250285393,48.60810293906729,111.22640558908734,-123.85930794330805
329,14.63301444508379,2.824726179754358,5.123645841117966,4.1747475788611155,12.8392097357541,109.61770573506107,-27.336501961249557,-18.584943691682188,34.211655218742436,147.0325309718585,234.58446875251585,-122.43139199736004
330,13.900547463598848,3.088434522342886,4.205060725843554,5.149080608551004,12.139541763808134,119.33290035189887,-6.952821771662115,-14.671095185986548,-1.179906957542435,16.029934542498264,30.495585388915295,-160.12609423533047
331,14.464726661583354,3.238579465536505,5.333801251714006,6.3508260206306115,8.454315291062665,129.36495221064953,5.8984413281471495,-4.057344331220773,5.3024836817333725,101.82548541890887,27.268280986751698,-195.1343503055769
332,14.856675971222295,3.683922036179502,5.217082138961399,8.211253987908242,8.37167698950354,141.9161663830944,-1.6136519802827958,-6.235473820584102,9.871141194277776,20.78540782744379,-44.173869516246384,-224.98730505498582
333,15.016321855929482,3.9847301790237073,5.380881460599597,4.0958028681022265,5.994796184290666,153.26055514399627,15.503344410798862,-1.1707553373338517,2.1979483128459862,78.40350602290424,-44.57212113505655,-218.74592372798034
334,14.95664050493654,4.072721016175809,4.821312185354022,-1.7386735674733158,4.544198459613858,165.78848123961254,12.517349138947669,2.6982934729252435,3.3559324139070346,128.98879674018016,9.012548866179964,-205.3798267540818
335,15.316984856406659,4.040668795094185,3.9771985824090645,-8.589949661372753,5.898504100567099,177.34576385779295,8.722421605670718,6.273191455826902,10.265285777167556,87.42624765379377,-31.591264302313718,-191.21043354574786
336,15.429176067439666,4.247835639033723,3.605493678922363,-15.300659350530134,8.10884803257705,189.92832604931718,13.12402673182845,5.331405236428901,4.370111882470777,46.17806218021706,-36.31038875755021,-177.19954400204912
337,16.365494627281294,4.43417239949717,3.3286425831166007,-20.739351805765622,11.959979225254836,202.5363350037709,13.108220532435492,5.744952069211053,7.033552196440381,16.173157325629262,-39.183132037470514,-160.69281505046033
338,16.67660123053728,4.735838615374385,3.0546152501398227,-36.2931469451364,20.852886028272152,215.1275331549253,15.167222632252207,4.986376586704053,3.355237374803299,4.3603413434497,-41.502418193752646,-137.94744182252919
339,16.260457149793115,4.91729030314576,3.220944282196287,-53.881182547801025,28.72143198539943,228.67678367211988,15.913929632977144,3.4868412061317047,1.151261136446576,4.280956542274152,-14.195004039363667,-118.15937775699926
340,16.897135063567486,5.378965208574563,3.7853788853483112,-73.53856332673034,34.82812257732975,241.0001840064163,14.068368671357783,1.9726267794495007,1.5198629865791666,12.391476823002685,7.626852439468596,-103.14156933335612
341,16.753374877260875,4.944635288505326,4.498347939986469,-88.12548919343803,39.762634264423745,255.78591403188273,12.055784026882566,0.36734010025698643,1.2678447175258785,18.19202200105675,18.368916880449554,-90.42613596859431
342,16.717326497847786,5.48115581863431,3.827639825143405,-94.74592370088646,40.15516488787428,271.297142088409,10.56187476167111,-0.15814408614826006,2.235939634482621,21.63448987624332,14.535294849738513,-80.3036811840128
343,16.882039423425052,4.773050019029544,3.972415047609067,-99.28509287429162,38.281839827826396,286.41660975115826,11.562854002187942,-0.4327759242383225,1.0108008578484817,23.253810565547813,12.929460835366152,-70.52726673465405
344,17.528482859723088,3.4363360109547507,3.6212000895655123,-88.65365121933166,29.88740451054586,303.1057129812803,10.83494737967947,-0.5791255599632442,1.2458595036394677,33.70576623370721,20.61596587203775,-62.34848546293298
345,18.459083281466416,3.575682725289167,2.675499923890533,-71.98799164306317,24.395033095676947,320.57126304362015,10.017084463898822,-0.9156040601735818,1.6556121072438441,39.14262478766873,23.321715463132698,-59.14584890836428
346,19.274825503184886,4.080322693540249,2.6880311191026642,-70.05057109421382,27.253024859112166,337.1762984925279,10.098521490671295,-0.882798469040964,1.6580901373913728,42.03992618710941,31.69534885598039,-59.10785644661791
347,18.96827061272285,3.97926104104941,3.7339103726067044,-62.90641658484506,28.925934535603307,353.1393999978286,9.736694494531605,-0.35090274855317033,2.7076734998995575,43.14192692738919,35.48622655860535,-59.999576297252865
348,19.543280936910605,1.7381927453574086,5.542671795037319,-60.54232738071927,30.12428633382481,366.76579710880907,9.492301309933302,-0.2001591847758953,2.866842186237782,38.891052200472195,34.670429916584524,-61.08694202347213
349,23.457059586614214,2.5804284350014504,4.090775462074386,-60.30786318821185,43.635458162959495,377.0742991412952,9.520622488560225,0.1203507414176349,2.970467651626767,33.81602924002663,34.90580572900646,-62.40957691056621
350,24.923613209080017,1.9126165165329136,3.2469303577101853,-66.15060798964281,68.42377549686584,381.5318147183782,9.477371190879555,0.17795729514767333,2.9094809853726886,27.665640734174048,34.72292195803947,-63.71217305362282
351,26.253846616309946,3.4809777849485504,4.390065930091032,-74.68222693529304,101.80496877532279,382.88511309323326,9.48285050965351,-0.07590957642346387,2.7904779802310777,24.879719592142862,35.671669450183174,-63.79113268398658
352,24.606809080432544,3.636342751250887,4.826607943529637,-84.79112521965746,128.20530420821967,390.5772035509652,9.507454984880352,-0.4024225253330701,2.3846607219040883,22.038951315013666,37.23428520501073,-64.05544186060507
353,23.148104644273946,2.915820627103381,4.569152357350553,-97.01221184796113,134.24387681454462,394.0614345312726,15.449002833997898,0.9760055124026041,1.6510446900734659,43.70595305362893,19.546312914040477,-37.89885978544576
354,25.73136398476316,1.1249378908386105,6.187660215520546,-108.53013417676463,132.51911988127242,391.255205661696,13.921725258438613,6.740493676637593,9.935693100740878,-1.789677617599805,30.146753051855406,-9.792074558840037
355,31.15586843390471,5.581719070303661,4.540036663419503,-113.37921441212616,155.19950848823524,386.0993453580016,9.215818828580504,-1.446721457707661,2.695437067253067,8.491501592690291,-28.170053701956306,-12.113430473031636
356,30.5736253031575,8.056047427211498,4.945442842987594,-133.45360518807257,202.80310053767,380.10964210203826,14.19546739936278,-1.1976787827244217,-3.256085944864862,14.187289915908423,21.091122732359864,-9.049516320243711
357,27.19453299947061,8.71872338816292,4.593927429081061,-142.46899553633014,230.43125728114222,375.6121322554203,6.316115043273985,0.44172408896797705,5.879021113089437,19.279908175982783,19.19658060731068,-5.146055912968944
358,26.40527609561013,10.24783921919027,2.544684018152282,-149.8049930551018,237.458158303813,371.76002757378774,9.506656846792398,-0.22978874649770664,2.5514319008119086,1.6752805700954227,-9.697386510456544,-9.31826957930911
359,26.53357138757434,12.118561932926072,-0.2246153735095289,-158.86535367273257,237.80551288327948,372.05815852661846,10.37388294845631,-0.46513175548480584,1.286917987253634,4.285647013876558,9.413836515416293,-9.25925780016382
360,26.371670342744853,15.497986131422277,-1.357429572019444,-164.90773009316445,230.293504645094,376.8456727660326,8.98813561246834,-0.29203286689317753,2.6946587575625314,6.535623739003141,5.956116556919548,-7.2621014454243955
361,27.105938722312775,16.779999427963467,-3.37275871069219,-162.5420350899413,213.25471189301496,386.15101602305896,10.193997683666026,-0.06052621030085203,1.792316499190311,6.969008435107591,4.787759754740074,-5.244035745553149
362,24.345720956512714,20.609240523846655,-6.551019702654381,-160.115616314409,211.79091818801965,405.3912602102602,9.97155868378049,-0.39824367459314997,1.8038435826105308,10.553973161441204,9.597225547025095,-4.161946706112014
363,19.96866372730246,28.819966379964818,-12.46139129966334,-151.62048424755713,232.37550233507758,444.50305752837727,9.461498524050743,-0.23936476605610146,2.39992486922347,10.013907773221499,7.9468709810356355,-3.165900031462956
364,-2.5447686795898634,11.274401861854628,-9.511280969044735,-137.22704574159602,230.91830445652573,453.53548165598716,9.680018784429114,-0.2413623350361152,2.336653233970783,8.44425140452983,6.245557738009967,-3.3157510848824963
365,-16.386407327278906,3.064187664894539,-18.3654351087638,-101.90981632212042,173.92926199185536,350.8158412580057,9.767310995333636,-0.30000316271839156,2.138646657492414,10.014380724244203,7.824417057044048,-3.0430159867453512
366,-18.80113637207604,1.7818094992639122,-7.650249358014554,-52.13668114066221,116.62864159696132,245.79464520516743,9.60834102879559,-0.2360087572776126,2.32428582323012,11.21032866489826,7.015167096743886,-2.0189969400558274
367,-11.978539277872306,5.592741772515266,-0.2004666554978712,-28.752352815400723,11.62374932780107,159.58937299694583,9.533534296587801,-0.2064550646447218,2.4122080789006275,11.331620807776938,5.7876824081610625,-0.9136754489541467
368,2.629139235360929,6.477554901616376,-3.9972311736749995,-8.182470036024528,-70.12442411498002,76.58227716096746,9.46682727872678,-0.2154322186381568,2.423601564487279,11.68031126515953,5.415910114690671,-1.163002372355795
369,7.880967225790095,8.462128355217741,-5.977301554546097,12.548056357915488,-94.08272292828427,0.13916885369823143,9.427854392715636,-0.28210494671000963,2.410477798195853,10.118379360948447,4.51174411575441,-1.4387450097188208
370,8.954356022896384,11.508216733446545,-5.126033204832748,38.51185206051724,-99.37050708997157,-63.02622180942741,9.597368656675782,-0.2743780853971806,2.248279471743312,9.280453798985969,3.6005521848099615,-1.0532506053320203
371,10.08622024215264,14.547544138015558,-4.521439112687988,54.72375210936986,-81.52825068963203,-113.07382815299808,9.546651098797156,-0.2975098691167182,2.388156316900904,9.278151743889484,3.1712953857254527,-0.8677153422170929
372,10.322982121275123,15.444326397094319,-2.9251391838415577,58.78283591174602,-63.2726227026235,-148.17236008648072,9.560799862899414,-0.3501846392919169,2.411740204993199,9.699092643484393,3.473718075777368,-0.8149570434407288
373,11.051286456394813,15.53273053088764,-2.290843653990681,60.231780001396196,-46.71341125484712,-167.64220783722527,9.581980625264734,-0.2688031793088441,2.5064785614472482,9.631595830709024,2.493114924776785,-0.5647454865123761
374,11.333977171291265,15.323218719707697,-1.7463774527644196,58.05651273281813,-28.028340162205392,-176.96076502070008,9.566376618503298,-0.3500849127663078,2.4688734217305646,10.105048847672109,2.365557787169484,-0.6335560685889928
375,10.888863731563825,14.602359674343635,-1.4100999724234344,54.156941201347124,-9.802767008891323,-180.64834476699414,9.531136063602558,-0.3549004041183886,2.340954581288425,10.692611090866775,1.9913660518637295,-0.8257140121582359
376,9.272883632352247,13.279622645520563,-1.0665379678171483,50.931877336115555,5.136880729773117,-181.83512536754267,9.565903259033595,-0.3071905053651804,2.4067428890319413,9.617183683131847,2.3088355523804642,-1.359792187465746
377,7.410726883943583,11.57864572974932,-1.166766287298869,48.9329853827278,14.707805002395183,-183.0116001433484,9.575533600424203,-0.4266338527959934,2.4926405401368124,9.853029225230388,2.3677088957714614,-1.5478254199445394
378,6.099178135688166,10.215433287706428,-1.5573180305718546,48.997401781254084,18.966835735674156,-184.49869186106906,9.525178116050096,-0.3741667967670133,2.269547509736155,10.856164837620042,1.9278696930945596,-1.7467721424692004
379,5.190100234482192,9.112437389773152,-1.8283808695319603,53.10291930074603,19.485855610845274,-187.2572759575811,9.549739051871818,-0.4267705445306009,2.3549059950321056,10.078904444763156,2.303644722440497,-2.2862220985516974
380,4.610141695082048,8.141275934372834,-1.9678804286888543,57.64286381047414,15.30619393360453,-191.15012381129415,9.547280824332631,-0.31650140254936077,2.445462238819285,10.315923694690431,2.791654901320901,-2.7209188941664957
381,4.198407187659644,7.342079663109122,-1.8913812795023686,65.55168163202694,7.5686884305506155,-197.214632504248,9.59759880914907,-0.4223680798758772,2.3631333936376504,10.192131518655822,2.8541359665967785,-3.0865274933051845
382,3.9899203796373746,6.599127582088507,-1.7124354090171205,74.07783753811223,-2.73814374728025,-205.16006233124625,9.54705759642697,-0.3547413306938599,2.4550904101138946,10.489948227540228,2.973672893288349,-3.1533135847620355
383,4.458951558842483,6.141572776995322,-1.6056169584634246,83.1153647880107,-13.540932454191237,-214.9365716013758,9.536465883596692,-0.3596186140270894,2.383782367812072,10.18517616474493,2.669980560769363,-3.391776038555293
384,5.014561533569004,5.883147196766219,-1.6529574071480744,92.86441478523415,-21.73279635608239,-226.50674058069103,9.591923166127835,-0.3261154001393648,2.5731514453617144,8.160460250851564,2.874686851390944,-3.664252438957878
385,5.606720340171849,5.763523446143119,-1.621846123823951,102.84592254465304,-27.980728197475027,-239.49232568777742,9.472987409776055,-0.19613079945145737,2.509324591386206,8.207638457386592,2.321852858642949,-4.030072299349822
386,5.977085877124669,5.737375929691298,-1.467139704591586,113.63884320275801,-32.475704226788096,-255.30196365614324,9.46053076070249,-0.1917808528602711,2.2996079304674897,7.730796964689216,1.8361867030850103,-3.7137050730235717
387,6.49758162627037,5.858063052433213,-1.3267420705560875,122.95073889239023,-36.22861852100643,-270.0536870002349,9.430027267159028,-0.11459802072755103,2.453057284582989,5.9359295833676615,1.3637456369584366,-3.987232905186329
388,7.224609386489926,6.134201594619716,-1.2776775833655918,132.1739999156375,-37.90399414952047,-283.5398240790332,9.55244895167051,-0.201868699793319,2.397359179823984,5.222728800498123,1.2485591947119146,-3.8521670112525817
389,7.938395330179184,6.3538504547267305,-1.100732932793093,140.6223011330064,-38.037745213847025,-293.1290441962449,9.506408845864549,-0.20595592560537107,2.5179753793383517,4.211144917667452,1.1363027555438132,-3.7731872072244617
390,8.482425606581247,6.3648281882913365,-0.8850789465505986,147.74692263474125,-38.089958548637085,-298.74053597904606,9.431780056790432,-0.12861983606089367,2.586704443217269,3.2537565860692164,0.9006369664512717,-3.939515626107111
391,8.725446118116691,6.200699754532626,-0.801574122596551,152.9883381798156,-39.03670091759776,-301.269180701752,9.49597403175909,-0.20125571363343847,2.4514182718862054,2.2909906344045026,-0.19343559893311205,-3.7960702679924405
392,9.011103965713282,6.021772193651142,-0.7333324978468785,159.0976472062183,-40.1626252644634,-301.80700750426564,9.481355636800469,-0.20596418670037156,2.4327326705047208,1.5712623966301595,-0.6154406610259009,-3.843249432437842
393,9.46179233906007,5.683555920847788,-0.6831089145368806,164.14236669265995,-42.49629744245642,-300.6746750117818,9.542577533919683,-0.24482245409336606,2.4024871004345036,1.9369311397375513,-0.4349201488848033,-3.421630038197982
394,9.479440134892574,5.354748730060901,-0.47942363065284815,167.9280058578004,-45.98044286634918,-298.90249127302405,9.571857477972719,-0.18764646207329638,2.4111211411747777,1.574186966569268,-0.9219010394526272,-3.4133876534233116
395,9.683826387954573,5.010138800330417,-0.2526139860970126,173.56981955727693,-53.246302868703715,-295.8049425437556,9.53969282965993,-0.14417750946805413,2.4692044689097976,0.8573286727773864,-1.09860464985248,-3.4616227811411
396,9.719194361650196,4.899308564062877,-0.3473468360606223,177.28027364551826,-60.9321420299569,-293.2140672234094,9.444221848692324,-0.19114063833315997,2.495781738802184,0.7311194079273655,-1.7107191803638109,-3.4569029523674777
397,9.788736012094587,4.584023006068909,-0.2064439114146792,180.87968020783396,-67.88507397497978,-290.32179247324916,9.524624782935698,-0.13941356684404901,2.412321936338018,0.3797046604143112,-1.6455919575042626,-3.1449950950983947
398,6.368558941026741,6.984427551154815,0.561501558065973,171.6218920726764,-82.28657326760529,-288.9556952436575,9.476880900883662,-0.23929909673310515,2.4758848171245207,0.5548365621759204,-1.7701159032800091,-3.269965019816956
399,10.085074072967366,7.988502370773984,-2.0874062588532163,182.71937800352399,-78.42389221485436,-287.1886661340743,9.42411939830999,-0.272335290113168,2.4773951441969717,-0.28548928750861297,-2.2522586277099386,-3.3760707562778385
400,9.889725928766218,5.280498298161864,0.48028910646673906,188.1332416199236,-99.4082208779589,-285.52182371336573,9.57987775133384,-0.04864386484110806,2.549072876021327,-0.8658823658908821,-1.8166033163460713,-2.7555901058136762
401,11.336390679667488,4.509009083778201,0.6554611103323521,187.6418089002594,-111.47038100138636,-285.132379461349,9.408334252460595,-0.3154471485022818,2.401529922492364,-0.22449130527909772,-2.1302068394306097,-3.37762962533571
402,12.31510666522086,3.8864676582070787,1.0833944374211362,187.8209429275084,-123.29008438412698,-284.1495886755199,9.517951866894267,-0.26385727515908375,2.360234358172596,-0.16108051791867506,-2.1920036234518188,-3.072285028589166
403,13.435921539073599,3.4827676538181973,1.5346125274894662,185.26592652396067,-133.2041474423647,-282.0918036039587,9.492280593512097,-0.10075087516042511,2.460871818974871,0.4307894061713833,-2.504816626816143,-3.019784856121829
404,14.54069712450781,3.305851011738637,2.3104149227816912,181.35324360451455,-143.95812326968885,-278.05663090579594,9.468869092785638,-0.1482262943243405,2.5236659000527437,-0.9919692396048371,-1.631631503261418,-3.366569688582968
405,15.818373355370152,3.2675351297270736,3.3258043142871427,173.67412815291704,-154.0218670351857,-273.2228361075301,9.454139083874187,-0.17205473146352315,2.509794384318564,-0.8087692959341558,-2.1851785743523244,-2.632564373550047
406,17.18638058806277,3.3423195878565664,4.196754762264371,163.37671537301594,-163.09419570235562,-267.1888018707178,9.57131991995837,-0.23071600216479698,2.4016718971401163,-0.6377712531791266,-1.9418573755367274,-3.3101373497513547
407,18.589163319823335,3.3393199289797155,4.902142574565812,149.93925214207,-168.49082046537063,-259.83966767399744,9.534454644527875,-0.1871949944201737,2.4646578146399505,-0.6905811727550464,-1.6958658353069378,-3.0652997581645294
408,19.724280876524297,3.05345415525738,5.889680430406191,134.89225287621085,-171.13968576927724,-252.90228998541528,9.472626729577279,-0.16276718530472586,2.461531064300116,-1.8332482112634445,-2.1137779660184624,-3.533898716287768
409,20.36601878988196,2.86190924189698,6.753915450128875,118.79224677521513,-173.54936807717706,-248.31717638493078,9.533779634220409,-0.15866099222044366,2.3977868722245894,-1.7164041859140842,-2.053710464777122,-3.7198618503944614
410,20.551055950990094,2.495543265860314,7.3112682894487495,100.68328690185714,-176.07929868669734,-245.57683946941603,9.482025853176498,-0.10556978093019691,2.4134237022508103,-2.4836087113189467,-1.861725375517653,-3.462589804838127
411,20.418688766930742,2.0123741065617313,7.868620516385456,84.06019052820758,-181.06953563747953,-246.98476149045385,9.49082108958053,-0.12010434948650554,2.3702462023111295,-3.15046939733066,-2.2844817938968243,-3.9393244031370105
412,20.537693794773823,1.3530679333756497,8.113418699986166,68.13210615164192,-187.83356952469865,-249.3677730569583,9.484236612446882,-0.20633148068242424,2.2989864826199935,-3.026404396682655,-2.101624049412941,-3.7585276980094364
413,20.58122888057267,0.4504351547201255,8.333181029239356,55.701120099056894,-196.08525628971333,-254.24186338219232,9.448896104810697,-0.08614380844573802,2.4190678193794453,-3.385586351788417,-1.7301781533826661,-4.182546625230207
414,20.701052580179653,-0.6070332558582174,8.353586410708195,46.015252897263636,-205.32681113370907,-259.83201315773755,9.48000614884459,-0.16322156096423418,2.308566331303917,-3.621076647599039,-1.8502687794867865,-3.933113485971279
415,21.060128516698846,-1.9327833979120659,8.623035777645967,39.021549069875455,-212.81825187655457,-266.8845028916242,9.652981772613648,-0.20264661887764843,2.4232483928827926,-3.6787480337288403,-1.2976777034903777,-4.240685423129039
416,21.889261186812536,-3.1764996637348424,8.893087752548794,36.81226479087497,-218.1450360733354,-276.2331096734703,9.524781149001472,-0.11551069287556416,2.4074973255577747,-4.212564794041025,-1.1696122864096732,-4.232036234241353
417,22.870551223418452,-4.206016901386886,9.22386747043144,36.51238829600204,-217.70315502888693,-288.9998139863369,9.538389691794137,-0.13962810982564972,2.373754241465813,-3.6081770608308568,-0.6849812259214257,-3.9994508384300107
418,23.25706314763801,-5.319450942918201,9.85916736067596,38.89925279031772,-213.4447000135829,-304.5186552253919,9.51896171906022,-0.23503138514206506,2.412663043646043,-3.3012384386893094,0.10928720287010972,-4.0080452870395105
419,23.665981857149575,-6.426999699590645,10.710604748094884,41.90131924308092,-206.69060380880444,-320.12621627725815,9.523597082315185,-0.2923966304474286,2.4412906512853523,-2.81880862179738,0.10457390731842006,-3.5876407190282515
420,23.96411584051381,-7.719322109894094,11.683821785805272,44.745090372612694,-199.5043394262371,-334.3957468732151,9.632962967207668,-0.11669628556863572,2.299509746082594,-2.8075210711489467,0.9018994719501808,-3.4686484902495707
421,24.394481195047995,-8.875600018404747,12.412350538734344,45.92676212118238,-191.01204642502557,-343.71561187733334,9.662583079709679,-0.14541418796504485,2.3894569861801442,-1.851489140757153,1.505387557437083,-3.671225585875661
422,24.969777575411296,-10.23610911328602,12.774880145394045,45.51880125161705,-181.8191221141027,-346.9280055479943,9.593652043383743,-0.15477663387730076,2.2433749629535686,-1.8971697312954146,2.1807252319711012,-3.3058313068284337
423,25.449898489031646,-11.754426753058727,12.994706842504508,43.53462853989552,-170.2188394232819,-343.8616658114856,9.669510716575186,-0.07909463328032396,2.159993139473974,-1.731602049490719,2.0559714110381697,-4.042947026497211
424,25.538851817410404,-13.424940667438426,12.787890628348455,39.78856631587637,-157.61136186935883,-334.2606659634554,9.877827380639483,-0.2530327420937472,2.164169409923317,-0.28464189219866576,3.7587035156353172,-4.1361296301458275
425,27.771244882810656,-14.216981273301425,13.049564071170934,33.43889982165659,-142.47035455019406,-319.03126088498743,9.873004486387977,0.014406922239839163,1.9823751727370544,-3.160909044344019,3.9713883695947083,-5.618675111933814
426,22.106564700431058,-18.349134383387955,11.087633560721454,30.01800729660035,-118.07204299599367,-300.02329344557177,9.667895379236896,-0.13667636023821197,2.0837676792203945,-2.4338372540406943,5.31321351763603,-5.820412017297239
427,23.219410785194718,-18.790324263567886,10.059408293553489,23.680951954877624,-103.52091402747445,-279.3775758173012,10.004655341250734,-0.2783294293128276,2.0413960821691206,-3.0877114467633158,5.504114074534924,-5.932660567825342
428,22.997950958281447,-20.7574753589755,10.168992473324899,20.487342893010435,-87.2762434268172,-257.95322801679123,10.11950847752122,-0.11209517770089622,1.9567694439696044,-2.983951248100568,9.30597577342971,-6.011519999359531
429,22.340470721771275,-22.712696212920637,9.25389320584805,19.992725844160237,-72.61037756602475,-231.76708924313021,10.687186952410194,-0.044357416881773255,2.2513792508734984,-4.272546801528241,11.956679729463172,-6.735570688464234
430,20.3503515518872,-24.805817348717635,8.951699774095783,20.62857762805962,-64.76829757667832,-203.24950894697352,12.39843400929088,0.2592671269816268,1.2825326612814036,-9.99364264175212,20.172555266725926,-9.856753649263922
431,17.573782921809286,-26.681806664041485,8.656370166364212,22.476816984178864,-66.49751672954532,-173.84374396336062,14.146838243130869,-0.1178306732319602,-2.010876310228592,-18.082138356425435,39.88088194421309,-17.33337598678398
432,14.877534848879897,-28.10141906812092,8.842100097506556,25.965630724814982,-76.64129691524623,-143.5658932704489,15.361519211341626,-4.472472319388,10.576822210965808,-11.378477860509816,29.747142205634688,-33.75815368443381
433,12.400635659725358,-28.81181264047778,9.616934092433034,28.513211213519117,-92.87608797230467,-113.47485967637472,13.732068166779277,-3.1018647089296576,8.112544129214815,-37.67950476478238,-7.411671338790423,-55.25858456321945
434,10.700909106072572,-28.807108622589713,11.1631736956744,29.10293841106173,-111.60610480611214,-84.91146003609478,13.132235241835689,-1.24077126997192,-1.1597816235544116,-29.287714465035272,4.334064895870929,-64.32859106317036
435,10.360402574026768,-28.118666045418685,13.068794033627846,25.34553495628299,-130.12390634426956,-54.015159824964165,11.360900414073667,-0.3879742709868781,2.8971478154771773,-21.25678324832313,13.020486622155744,-67.19582578506247
436,11.163892061092774,-27.00997548329532,14.935734680973239,16.139463545589024,-140.64200970550726,-25.67786715261806,12.484979322804737,-1.4256755972748119,4.820862877823897,-32.81786895425116,6.695782814807062,-75.0558917008849
437,12.352814926987703,-25.986260875133816,16.73572828694094,3.1056977802482,-138.72669345755503,-1.8440961810266827,12.789194338412095,-1.896811072824533,3.028019057053974,-30.186220559264484,8.320879087212875,-83.19082751772783
438,13.88128731374194,-24.862850638881433,18.106311196290026,-13.234348118865697,-123.47243958324827,15.767939036702243,11.794012598707488,-1.6819423438947538,3.3508565298469324,-23.182344899827882,5.97521625585512,-90.15863105688712
439,15.270572052380048,-23.804105427599378,18.858991094451483,-31.625477637912095,-94.2781929441873,26.52207952570087,12.134883239887143,-1.5012149596629631,4.062014606444595,-21.990386895571007,0.43900309351837785,-97.25921267895167
440,16.1467303100879,-22.8736906150107,19.00452871766363,-49.677154791384204,-56.512065032069046,32.04739969853039,12.78171762970458,-1.8429804268928718,3.4768616954013596,-16.534627668409332,-0.47959475619207553,-105.4318608905926
441,95.6949049063087,6.829046547452431,20.872557842463337,-26.32892329586183,-159.8533177124569,124.7195389638987,12.713715996522538,-2.0766142398570664,3.5460136836227316,-10.062955952131912,-0.1212536800610489,-114.30058548691167
442,-6.635356053001209,-16.385437422147277,20.06916063388731,-149.46671189348066,287.6264951100052,239.7823506128234,12.688928841512272,-2.1282367381432588,3.852320135375973,-3.7526757229314063,-3.3802042034433826,-123.09015767194929
443,3.2826495242740323,-35.40559204840319,-1.973710414929695,-109.87036986597445,148.45930700932016,225.67307455012227,13.285123278579984,-1.9986801815601294,4.098289636500575,-1.8372815453782299,-7.637821497622285,-134.43373236899066
444,34.40343572902395,-24.030339897558754,-5.09837413567506,-23.095019736259527,243.67271090663752,258.88789962810813,14.859413744824312,-2.960806032593119,3.3934457289069915,7.067815520426519,-6.322589335966204,-144.45092309561588
445,19.395990142113263,6.110273628541764,-14.993320006588487,-17.302088860925288,312.7025299817065,246.55220583507858,14.920085832771067,-2.713250130821191,3.1335133653139744,21.025157140096212,-2.4854251900856044,-156.70730164949342
446,20.139752697948452,7.7511708041008704,-3.390393611219999,16.53109067501338,312.748900509544,218.64242888547452,14.98650094948511,-3.7700499508884295,3.472691293158586,31.67868236108606,-1.190055394350893,-169.0808949112249
447,14.605984813975898,17.568985298850894,0.3289729407282223,-25.612728212082292,373.33308921024553,204.12221098799836,16.250696542210598,-3.835760424674644,2.5072679260859423,43.78603108845685,0.7025792576127631,-184.05355383786826
448,4.790200119691845,15.076510110675564,8.35849149344855,-78.1831028399094,395.3142444732399,221.24025072450428,16.984193089409438,-4.3547883973760815,2.0967170105501354,60.092851328269546,7.396949220235036,-200.52646279491856
449,-37.513780174400345,8.699778697082783,42.175645954185455,-318.6479388236003,211.0635298242328,256.75150934467564,17.256818685739233,-4.360851823300837,2.490260425030788,73.46812254765749,12.156491536351076,-220.37013753944453
450,-12.519262134037113,13.637499741121802,5.970040930748555,-168.218386732811,-18.68599232700096,282.2260207167116,17.325912037488518,-3.7185413420936304,3.241387054332461,83.46770717227812,8.853527605477538,-240.61207698607575
451,12.01499445827654,-1.659696831173014,6.966199951778811,-169.91305370744897,-13.484221410020334,295.72078064536834,17.898366909149185,-4.187392887883259,3.2170608594356347,87.71623861775944,2.9110975324380797,-261.4188926336203
452,18.46638130652509,-8.109295015264491,8.163458004499708,-150.48771426376624,-14.197767963460414,273.14999699034917,17.818052028544273,-3.8792351352210326,3.7437871019743305,88.32113167041432,-3.2402208736937066,-282.95823923901264
453,25.419710492567468,-9.7918837242297,4.583401640932337,-167.92188717356038,35.254086123698,224.41249458599407,18.1481853432516,-3.7420347477120863,2.369149465542083,83.83434022208199,-7.069678253383187,-304.7265832627397
454,15.124573285591024,-9.251361276705165,7.47052217543531,-121.82551094879018,52.158914472198,190.75271539068794,18.47475819730838,-4.517506162444904,1.3496490280518925,83.77498769048876,-8.061690960187825,-327.1338739348577
455,11.01843792735192,-7.243240403818036,8.810891247532512,-49.64430277694508,34.9342719843118,169.87314560853332,17.966946648467815,-4.250585053878865,3.0482191373805665,86.07950866719115,-13.861570286928664,-346.7441544272921
456,12.52495509859171,-3.7819603022817065,4.577065730293736,-26.560778394819785,24.222288132676024,151.43364837885397,18.82027925445136,-3.993048164944923,5.544925526189707,71.51688941138066,-22.554110649341403,-365.9935451643718
457,11.72224689566608,-2.092480422336102,3.7386614925157162,-27.223580009099276,27.50770700674255,133.0021852231517,20.07631453958254,-4.496021191347811,5.6451455707125895,67.44044665836383,-14.361698219888668,-382.06362063550085
458,11.50652308517799,0.03159065474803106,2.0664866887076347,-27.27218088155422,31.236586700969102,119.5425769001402,20.68410284654021,-3.503195044726793,6.815246869624002,68.0413310595443,7.952566126256643,-395.0876620111371
459,9.721088505857068,1.7963212468932894,2.0092952099865053,-34.79079153590424,34.21450255047425,108.84723967588641,19.12101763421878,-1.973483494008317,6.92194833300612,79.76197713695204,38.18907684128869,-403.12880068298875
460,9.390687290334162,0.5267958638027644,3.4948481066115686,-30.866015998554033,17.528702338811467,101.03097272637659,19.59248610863884,-0.9717537468788568,5.522660776870519,83.29402114665409,47.41168333108641,-408.8609572095549
461,10.572568621478643,0.4424254493338948,2.2745201959394246,-31.638551972490994,14.949139219087964,94.37428589736,20.424175059184517,-0.1740217690704434,4.094801382512186,95.85459278629293,48.3826184817509,-416.8561932440042
462,9.557209627191286,0.7179874226399672,2.928469232202015,-30.319552574052718,15.914956788953187,93.79489301374291,24.637792572787507,0.4242646167374058,6.84723718108911,92.51822962958191,51.545973453732365,-419.4466797292716
463,9.821204624127954,0.557241188804157,2.8087180583472233,-23.232716283371577,17.54287126235024,97.4163886988117,26.457498956670857,-4.338380347714511,7.809130908448953,96.2705224527989,88.00187565873368,-428.4221687573551
464,9.892792770541696,0.2903100981766043,3.0435966583245304,-18.503364375796135,20.393598246793996,99.37335730216809,27.779511057104134,-1.7629631164308492,9.18572486997914,113.25637508791019,124.01136712607085,-438.904754824184
465,9.999266986818505,0.39166910818673983,3.355908543706316,-13.04664893527764,17.26445216825639,100.25932765708673,37.75866728219951,0.40112386824172186,9.084638999114256,105.04361060234346,131.28184582861937,-428.9991726293494
466,10.779415355601296,-14.58941121891246,-1.5637649827182707,10.678875926677044,5.384248190624801,31.466951861261435,39.97841817320815,-5.292201269689516,2.8384042500083844,122.07226136226345,204.90628825777551,-416.37320852784194
467,10.069452783158532,-2.131677314052848,2.01777425543389,1.5411985219085946,0.12256039207580144,15.562695079814807,34.23222761694759,-5.055282184731742,5.525579845754471,131.3741437394668,259.095056306493,-410.9396683018289
468,11.248802172320506,1.1608467603280723,1.0646181599278424,-17.26430996994059,7.489490044823525,7.066721013196451,32.96106848653972,-8.558223643703826,2.6217617188671443,137.94724872057603,280.3759479132884,-406.61023812941755
469,8.907359404560847,0.5860094726946512,3.1122191717216348,-13.464086029358617,10.987229178286245,2.5305156866009475,32.80543982543182,-12.178742074726781,0.4227710992036316,155.68189369814988,299.88264191134766,-410.1187831945671
470,10.348481529903514,1.4858723105856575,1.3616530634088115,-16.163299112750185,8.811724402942769,3.6924603013961113,30.46152587677435,-15.333996468914826,-0.9819733020689508,167.28128685323995,304.48432980768234,-414.0718992399577
471,10.051850443127865,0.5403524251136788,1.9163223696250882,-14.764860706259217,15.031390474336673,6.361831411678024,27.053393610807326,-17.404267581724017,-2.4646834847107795,179.97001433594974,304.5966062386889,-417.16684052597816
472,9.269902035148236,0.49020216535861355,2.8008939265406623,-11.214622635822355,17.08517201608423,5.975061383547335,23.650238351205143,-19.950325771352134,-2.9393216900279913,184.34338924430241,283.3865634713143,-422.05169988085106
473,9.876617517522275,0.5711034569943199,2.010628322051521,-13.0586518525266,15.075295320518979,3.895963039190595,23.21863356167027,-19.961870438340796,-5.123443002378164,169.80530678912723,273.9578674368446,-439.27710782818383
474,10.037612679824125,0.8448023546332716,1.641961674102721,-17.39226680898854,19.411955812550385,1.2170765879711112,21.143910156683617,-20.323365398031136,-9.257320336608238,158.3097490402972,289.94844753770553,-464.25344188970826
475,9.727503759315042,0.8354852173640799,2.0371389384059775,-18.827127513269655,22.09654387595159,0.43740708981011467,6.113728419649322,-20.112067571523767,-17.11887075189302,142.62328391952488,283.02256364453854,-511.9604133217461
476,9.35247775308195,0.8846120133172403,2.5186934059049033,-20.26696114036939,22.041769594830303,0.5263749734559076,-2.1589877289098096,3.0621826182316463,-3.5321988019256008,28.854454875374103,237.17158919547828,-437.31331928425874
477,9.475354335289262,0.8829457395994985,2.4162920229749125,-20.20981634293844,21.31080404171826,0.6515418952184815,-15.104602263359045,4.877414980603896,-18.891667867902235,37.76499956199251,181.262020181679,-302.6924915013488
478,9.613392517510576,0.7673712395826335,2.474232420403443,-20.574597558679546,21.67640793560002,0.16983614037774444,-23.41656876464663,6.738597977345017,-3.0330946769966673,-63.22500071747562,86.07004817162458,-156.7877813778262
479,9.438296545656897,0.8694924438369549,2.511648925321627,-20.755822633443564,20.520696519200225,0.6063169038705674,-10.654064651050156,-5.812909192675203,-2.308242899379426,-98.47992000698716,-15.37782993174363,-38.01467391808918
480,9.458509639961388,0.9030352923270774,2.553343373772005,-20.530829855535192,19.907284491092117,-0.18471521775510932,1.9276555599926455,-7.742036829307095,-0.8400443999070443,-134.5256939728988,-91.80992430481649,52.99310105576482
481,9.378614700088445,0.8947931965480189,2.6593006945786284,-19.142547630112855,18.503509681603592,0.952324383078658,10.45356337458921,-8.59202432414662,-2.1987019517684705,-157.69270149023026,-121.0972986570659,120.62240382049173
482,9.341503720863562,0.9336171852145771,2.702574942249968,-17.401863418633226,16.974501349079784,1.5968650261997854,13.29498562514855,-10.940337666786435,-2.1049300476735,-181.47704817715947,-116.28308498489973,175.56736703429286
483,9.095560413104508,0.9178568447054825,2.912184500942825,-14.293199553712293,13.306221023159189,2.2889431893506837,14.864569530238201,-13.701780274360068,-1.2689655636430308,-187.70273505687427,-102.3357386468535,212.29378183767395
484,9.124654574688382,0.9367821968194942,2.9207081618139084,-11.60582113804087,10.430880784020724,2.558689006258126,16.36858150397598,-16.66256650446083,-1.9059375080244079,-172.56092043516665,-71.81368667890914,225.0717578262502
485,9.172288653385634,0.9172718052673118,2.924178453617036,-10.050803374847263,8.292914545605333,3.089098325910681,15.850556295581105,-16.754685199379185,-0.3543789476582332,-161.41067042096407,-42.97548310412151,227.39396551116997
486,9.304752124595668,0.8251972477331171,2.9067599346918973,-9.884848185733473,4.942206886982243,3.5934615735452997,14.887133714595889,-16.095423260550035,-0.10488371685737992,-149.1391398194591,-22.001842790417264,227.52592499317905
487,9.344579117954105,0.8948642055160194,2.622549967107967,-9.6101157116486,3.4134123832855363,2.5034285123063036,12.571609863675484,-13.917570459628076,0.3362551402194263,-135.1324479145407,0.6085426076462552,227.07124297046946
488,9.446399012662665,0.970607898720352,2.6429132065794185,-10.506240809745337,2.688513824132285,3.13352939993898,10.23367125238977,-11.552171311155162,1.0927181626336717,-119.79170843515767,19.279948546733262,227.46759853949985
489,9.480013492275011,0.9038085760026557,2.7129754556739165,-10.389938627234178,2.5044781626037906,2.949948093037956,9.196476835090875,-10.299707869236926,1.1282586211385355,-104.79781384039148,36.913944125391126,229.28188572661114
490,9.398842300645441,0.9140786038302045,2.7151995033950174,-10.458684274388041,0.9813323059457449,3.0217238083331543,8.325084715001797,-9.356187390824784,0.6108620278402225,-93.49087998119766,52.685293969285006,232.63643025894058
491,9.459160139599085,0.8129594082341329,2.680990600948227,-9.614636072884908,0.6135205180406762,3.4332362655176025,7.67475336770908,-8.94382361769603,-1.128893842413109,-83.55324873459713,62.82802977435196,236.4051075552024
492,9.596415133417032,0.8492153820999402,2.5450207581738846,-8.95263325266827,0.06359556373771706,3.7887068137399127,6.599714840354778,-8.217985219415795,-1.3968190387848256,-74.83696083094421,68.93533739301391,241.31388149528357
493,9.630820016631123,0.7237405283991489,2.3985412817411875,-7.86709855802921,0.48606624987143365,3.947371369037408,5.329903132537506,-7.551577909323424,-1.2296433527596264,-67.99358667190819,66.59759580305675,247.085992718609
494,9.654755734308214,0.8376466171481723,2.293659717846096,-7.791470201797558,1.585065307238785,4.547093351685931,4.293105886958638,-6.709709161181853,-0.892562670542286,-64.69016026850679,56.01595234214569,253.50411274650665
495,9.73110368790048,0.7988758018208449,2.3152672561860563,-7.7178853533407095,3.048597604639113,4.840422442864959,3.874522855010637,-6.031818483138849,-0.9205987814266501,-62.70558952683213,41.952997745485355,261.9798583966171
496,9.806909653533207,0.8121886828099624,2.251816646433093,-7.467674972021167,4.936377975815215,4.702040589425849,3.5372199511102878,-5.33069970926839,-0.9509077970131615,-64.12949423208116,24.000433123578038,272.3671051344416
497,9.782398099974069,0.7836336531959031,2.238496554714569,-8.647887605842799,7.19821092555955,5.13644321259675,3.6588070060125633,-4.86810552986886,-1.0935814194907327,-67.15610089243928,3.305655360104714,285.1199099916045
498,9.623019651915175,0.8433827361927732,2.4076301011266383,-9.179228457764331,9.149683575756175,4.891169242868698,4.286464710086267,-4.64843503866444,-1.044377518174436,-72.07471423876443,-15.95871043046223,297.5313835412419
499,9.516096388097717,0.8455598340555356,2.617978583548224,-9.77785439037127,9.943560267360986,4.654480487975045,5.179324552366484,-4.62321154343183,-1.3410080197527718,-76.2460564604648,-31.79588806851288,309.4257658731452
500,9.42854426082851,0.7791681951295477,2.5830340354165715,-9.959476725041734,10.126447533772438,4.474484158378937,6.1045471698553175,-4.6787575348450225,-1.3185202192247265,-81.4877527543122,-43.88184951439238,318.444623755299
501,9.347274798787042,0.6800482073622512,2.6800258249552846,-9.180046262437653,9.574989262351988,4.6451205066117325,7.035796727372695,-4.758001594086867,-1.1911267251391016,-86.43201011331963,-53.82486922047161,325.79607486659273
502,9.548986274747975,0.7356839778227106,2.678835281227464,-8.52439977013322,8.962571837314462,4.575362805266061,7.827661722469809,-4.682595855929678,-0.9026763870164053,-90.56620717502808,-62.48950394069158,330.6790258053259
503,9.371788484839307,0.7751656180580146,2.631769686406359,-8.590446566588522,8.291866229995197,4.459331594699735,8.658003069063325,-4.478526369252643,-0.6775908711793164,-95.48716983811431,-69.42975193993745,333.3637743157059
504,9.420929774470748,0.7847785287043425,2.7104685225040472,-8.408632256847653,7.8655990677031244,4.762447873136636,9.452517289356418,-4.212521794608842,-0.666467279725443,-99.70283098208373,-74.23161335070999,333.82311868601823
505,9.449015194322454,0.7652692059272099,2.68620870607546,-7.936550664798926,7.131263719686349,4.51466003856041,10.11622002104572,-3.8732926765934605,-0.5086850816197312,-103.32007722270633,-76.58704162275936,332.60872107185816
506,9.338868023622172,0.709116733058956,2.731967745586117,-7.699462473559347,6.520846756210404,4.57467762960251,10.561764565861166,-3.456467149849548,-0.6506011238195815,-107.19132558309796,-78.08217384913748,329.6805852585156
507,9.243258262878824,0.671931897052999,2.772519041954975,-6.990997645833308,6.027699177883743,3.955887762927092,10.82443803346499,-3.147361539003973,-0.4960904145919382,-111.80843689458179,-79.81600621588014,324.86787652478927
508,9.388368125779348,0.709362960123319,2.843690079130824,-7.110607104728962,5.66338543611575,4.142873367953671,11.324029370265343,-2.826206392108763,-0.46266915599947334,-115.96750910722783,-82.16816883470122,319.37629024082025
509,9.416181200189094,0.7515529162465835,2.743745680127715,-7.357760744335126,5.236822021412092,3.8464222918886373,11.704538172511015,-2.65682633443394,-0.3158903192637303,-119.90220700436485,-84.95228902432503,313.3315273302502
510,9.457665302424275,0.7030162837459818,2.6815426472871273,-6.7572476667855526,5.842700756352939,3.5876893640551804,12.12032855315703,-2.377570224867541,-0.10823198662821948,-124.85327036520391,-88.40060117753487,307.4906287934657
511,9.440485971658177,0.7087101180422973,2.809244434580553,-6.8724065024678715,6.331164477874089,3.708379758909389,12.723500648511994,-1.860883532082566,0.0365426866525322,-130.8871293121567,-90.79385174517726,303.92955945607827
512,9.398303586041541,0.7569701960962462,2.8243396196817843,-7.182523924110971,5.843143324928087,3.2310565116918295,13.643092850469904,-1.370437854272217,0.3111376470976894,-138.87252366743436,-92.30808403804225,300.4592668395157
513,9.440591780411955,0.7420327917501472,2.785522496607731,-7.540550892175466,5.9062177590449725,3.359277177006143,13.30462771890425,-1.4335455431698547,0.7072193280654375,-142.02442832257168,-94.23982446371616,298.19425796431545
514,9.408140205460578,0.8330646590403817,2.7718696547267867,-8.259388293685513,5.301368873903396,3.741977291737249,15.117027463694711,-1.488728305359629,0.04659845832009897,-151.442257107743,-96.04547666262573,294.626776390245
515,9.37490928589273,0.7288576535968315,2.8863920843462294,-8.569037883100496,4.752594124933399,3.32576151112797,15.454637273303439,-0.7585563811194354,0.49898955303931225,-153.7475506016954,-90.80967398696856,291.5826458871214
516,9.35113683154818,0.729121716289964,2.8964819044089745,-9.2354092788253,3.7804720534433924,3.3448979196767215,15.203810413167178,0.10212782746475493,1.4207711614373753,-157.17922856506442,-93.72119420026348,287.4285106289463
