,left_sensor,left_sensor,left_sensor,left_sensor,left_sensor,left_sensor,right_sensor,right_sensor,right_sensor,right_sensor,right_sensor,right_sensor
,acc_x,acc_y,acc_z,gyr_x,gyr_y,gyr_z,acc_x,acc_y,acc_z,gyr_x,gyr_y,gyr_z
0.0,-7.507191125065407,0.8224084564517856,6.2479941760423525,-0.43313464482429354,0.45023028221423295,0.15802516249757523,-6.558451492762847,0.613586242060045,6.853456373296619,-0.18975968522633754,-0.9487143893402865,-0.6538510934017953
0.0048828125,-7.482460695364074,0.7883940355093131,6.182756849165502,-0.43199286285825805,0.38983034599706073,0.09702002806405921,-6.573264532425993,0.6044370628559694,6.782781818822736,-0.31276913451737764,-0.9494884307540135,-0.7122767673525485
0.009765625,-7.511187887702134,0.8316758692948567,6.1868133842090955,-0.30888580140316824,0.5107839483959041,0.03880434838911772,-6.577694833218935,0.5993709353790366,6.820531155654396,-0.18834562676309985,-1.069376414037727,-0.6550201111221859
0.0146484375,-7.510965820035106,0.8797041511078125,6.186597830580246,-0.3085576819557944,0.6917227277541284,-0.02167275179447886,-6.56814639748312,0.5993637381733238,6.825128589554599,-0.18745886173681417,-1.0698461604913945,-0.5938085356574881
0.01953125,-7.520647597511805,0.8412387119159278,6.177227048976042,-0.36899090516340016,0.4502126593135325,-0.023411800451795372,-6.58719712985951,0.6089074186527957,6.8254643588646,-0.2501211810406759,-1.0096589561366098,-0.6530486641016076
0.0244140625,-7.482460762605804,0.8268958701218677,6.196675923475884,-0.3676249740599322,0.3294411288205553,-0.08457129325569022,-6.591928963094399,0.6136596032872664,6.830289559013752,-0.18853810500167628,-1.1292459912473165,-0.7168230568861886
0.029296875,-7.4778345616928235,0.8125351955028045,6.206209374222667,-0.30708774787277976,0.2693356780324177,-0.022631115610123292,-6.530455389534534,0.6236719885976675,6.791869764521811,-0.18674494995445115,-1.130209239404139,-0.5943910306431663
0.0341796875,-7.477886422309617,0.8269964861548178,6.2155390529429875,-0.43037008334335997,0.20871908014848295,0.035707884298159916,-6.573110554517094,0.6282281640212674,6.811325608686859,-0.37048717956963106,-1.0118491595385641,-0.5278498312746276
0.0390625,-7.482401522147353,0.8268694670678044,6.191978751071397,-0.4302877202056213,0.45002229215214806,-0.024611484186862275,-6.56834760003585,0.6138824653091155,6.806404165603501,-0.24852447498955327,-1.070472457007905,-0.5924206451198658
0.0439453125,-7.4821201467801455,0.8363695112141423,6.173146950727678,-0.36761834738912513,0.32944201691572833,-0.08457267048359007,-6.530115769696084,0.6377411196660142,6.839186099804135,-0.1295651407179608,-0.9476426687587661,-0.7164502395317908
0.048828125,-7.482460762605804,0.8268958701218677,6.196675923475884,-0.43036863967862554,0.20872550472948737,0.03571008742824768,-6.539625032486806,0.6137966456823417,6.829630861480316,-0.31349518867066156,-0.889177906870065,-0.7116923836922059
0.0537109375,-7.516117670749024,0.8317336715862867,6.196133289168915,-0.43174206103279134,0.329493898454869,0.09687057828229031,-6.525352272440544,0.5994758637692945,6.824589655209061,-0.25032454313146885,-1.0695785298755551,-0.714834706054378
0.05859375,-7.531055154656685,0.8512240034020127,6.242795472214782,-0.4331114910651372,0.450236673226418,0.15801964358843146,-6.577641185199253,0.6184616215199463,6.834875232787111,-0.12905289792343172,-1.067825938917639,-0.778835867466153
0.0634765625,-7.4826977916813355,0.8655033169506758,6.229383687404214,-0.37118105958182257,0.2693493295662719,0.15878846226502863,-6.54456503442457,0.5995866001951728,6.801243196144347,-0.3131686805045671,-1.06926526241715,-0.8358674415837236
0.068359375,-7.477271878200139,0.8700371184080347,6.182464847845614,-0.3694966673732923,0.3295597213947471,0.037171787662318295,-6.534915726025243,0.5803602608292802,6.810365341264243,-0.3145750654214919,-0.9485920046748929,-0.8346904574745841
0.0732421875,-7.540203835249058,0.8510227713361126,6.2050692132805745,-0.43121033233142636,0.4501155563449056,0.03626691402272062,-6.596821740388334,0.5611397294990078,6.79208252776476,-0.3108754008805366,-1.1903688923926032,-0.7758279443596579
0.078125,-7.492253708399476,0.8414199592486146,6.215251067306868,-0.5529171953488246,0.20838715498431357,0.03331043565593324,-6.534707557322366,0.5993224909509198,6.843578206749364,-0.31287836439665995,-1.2493723719043541,-0.9600504868529793
0.0830078125,-7.501528249750408,0.826836645692891,6.182286646865803,-0.36951897902583014,0.3295899358257815,0.03718991281447432,-6.544217362887383,0.5992975741518153,6.843697969937262,-0.2530033514768602,-1.0681801522655574,-0.8984713508281766
0.087890625,-7.472727057270582,0.8123981840491843,6.182797952049388,-0.3073860339023524,0.08838155166159234,0.037831058656411946,-6.544255993058182,0.5993296881566328,6.838980772849161,-0.18645773590965925,-1.3102994522754166,-0.7185729833597488
0.0927734375,-7.492275847924449,0.7981152964547642,6.2013535483593705,-0.42921871749612306,0.1483329838588385,-0.025296911674859035,-6.515702964041217,0.5802495244034018,6.833711800328955,-0.30982321807916513,-1.131016111185436,-0.652816881714129
0.09765625,-7.496524466561753,0.8556222155432979,6.177534582133162,-0.5522549685527062,0.02736978712504148,0.03289182254701162,-6.5773686029064855,0.5225585947479525,6.829195606356956,-0.25083871788826667,-0.9493219341732881,-0.6524435137244013
0.1025390625,-7.468678434017063,0.7886694805540999,6.2346490651623245,-0.49029295146113777,0.08780614981062497,-0.026636581134096362,-6.563560490458395,0.556462295261851,6.786898038051914,-0.18674939958209477,-1.1301825006512036,-0.5943813851037785
0.107421875,-7.492401708683007,0.7837332149649409,6.206115386852512,-0.3083499710597694,0.08846655763155344,0.09872038203060278,-6.548894462554,0.5753013305580601,6.843517244195698,-0.2476630359069695,-1.0709512319433756,-0.5312030017613681
0.1123046875,-7.472919538329248,0.7836076180154741,6.187624456631184,-0.24780591768243793,0.02835193465118381,0.16065571474396173,-6.515950848463481,0.6091585226557152,6.815131740779165,-0.25012708793486965,-1.0097068250130075,-0.6530374374869421
0.1171875,-7.516502700108087,0.8126543741314212,6.21970537264289,-0.30949350013213045,0.14887732475430984,0.15973112974937526,-6.520396167105306,0.584969595033055,6.8432541975662105,-0.18747836409408006,-1.069880673111013,-0.5938005630092097
0.1220703125,-7.492157434249277,0.8365643249591924,6.205878277860778,-0.24755212407855498,-0.03199788744855004,0.16050046708683263,-6.558195556641846,0.5703190866960273,6.867174871357,-0.18748736313892378,-1.0698568801072368,-0.5938054043123382
0.126953125,-7.497264871429789,0.7981995018002576,6.215370625723677,-0.24546020839372307,-0.09245802256340609,0.03861699249233199,-6.601468804357183,0.5753890861967073,6.811155562112423,-0.18605410659388885,-1.1905003721663854,-0.5949794940969281
0.1318359375,-7.521410209146544,0.779013169991592,6.215084647929443,-0.24335204911558903,-0.1529107275250909,-0.08326917900882881,-6.530168332167177,0.5708113191559687,6.805492019647987,-0.24752585258704138,-1.3109316574775947,-0.7171726409671444
0.13671875,-7.414947018177309,0.8219438862121352,6.183648119513475,-0.12108434433344978,-0.33360649462326875,-0.02044142502849146,-6.558597961747305,0.5993565409676108,6.829726023454803,-0.3110152515254576,-0.9504293523234442,-0.5898570638356854
0.1416015625,-7.416346515171688,0.7888785530783966,6.282439627547899,-0.305678677393747,-0.39439064439600685,0.0367092103738284,-6.582611222834785,0.5660059757413227,6.787233807361915,-0.4345481760245748,-0.8309818618377849,-0.5858987045525804
0.146484375,-7.459492786974671,0.8225433159971957,6.28161878136531,-0.2433391984754892,-0.1529773053332662,-0.08329836297327835,-6.496558325151462,0.5180057445063186,6.823412300704623,-0.127610549347475,-0.8887056937411002,-0.5322007706158429
0.1513671875,-7.4738081452060054,0.7840036638264242,6.258082042698489,-0.18419566007219,-0.09230790424619843,0.039812230695650506,-6.4774394696807995,0.5705951074980514,6.856722490083668,-0.06883051228119004,-0.7669548444859432,-0.5936394185021795
0.15625,-7.511750571194819,0.7741739463896263,6.21055791058615,0.0005951070010130939,-0.09183420929456491,-0.017461218221835845,-6.525104930792574,0.5944864227015489,6.8528447162705675,-0.07071930604857149,-0.5260249809279858,-0.530095004982846
0.1611328125,-7.520699390886867,0.8171981679553866,6.172637653385979,0.060955628602690215,-0.09160104976789836,0.044604790028488134,-6.515083795759851,0.5318965859571859,6.889836950715148,-0.0703667062909662,-0.4062785255138533,-0.40649050844966944
0.166015625,-7.554008303362772,0.84594449811003,6.1531985526466375,0.12036237853972367,-0.09128389695552852,0.16755642864133596,-6.54422541458612,0.6136557312635195,6.848559531426671,-0.07102429225910716,-0.34591717244991926,-0.4059210843226894
0.1708984375,-7.539381915914139,0.8747200755938304,6.148595367612305,0.05996646743259555,-0.33283323454239705,0.16579088709080728,-6.520483107468523,0.6711506517080977,6.867706369414566,-0.13369432428504427,-0.28576418633099554,-0.46516690358860235
0.17578125,-7.5492191407577565,0.8026348391328764,6.139375473548295,0.061089528029168956,-0.39320845470755733,0.10479938767016217,-6.5541912732762775,0.6235775825950886,6.796886369579656,-0.19454683097308975,-0.22648033191399952,-0.4019687122901259
0.1806640625,-7.52063277058676,0.8316066524992733,6.1725729872973245,0.06153514421016391,-0.5139241351759846,0.10450445103318724,-6.649301632903857,0.484607828535476,6.740082113855436,-0.2563041306683718,-0.1666888347541612,-0.3999725525492069
0.185546875,-7.454000253193366,0.8414856019984412,6.2346352757180545,-0.0012176973991923153,-0.6346970784007199,0.22476747270574812,-6.596472440528263,0.4890920319019468,6.805512297022525,-0.19336473224587836,-0.4070032853449934,-0.464917385299461
0.1904296875,-7.477827114609437,0.7884682484881999,6.196922806228119,-0.18318553711018395,-0.6352952282557768,0.09944226337119427,-6.572745151259551,0.5274641522007979,6.815032254965805,-0.25177239140328694,-0.4090385427946557,-0.2799018555347226
0.1953125,-7.463578376678209,0.8125994161150843,6.220524210983593,-0.24708382390303338,-0.6956247825139286,0.2807293110373346,-6.56785183119132,0.5560644688044887,6.843564284703082,-0.188923426731784,-0.4093439812747036,-0.15887763702752114
0.2001953125,-7.487620060403108,0.8029923376149465,6.215497950059102,-0.2475190226107734,-0.574923772616756,0.2810149126028163,-6.572621751822712,0.536929210259209,6.8339972862524165,-0.12625433679555026,-0.4695131272644037,-0.09963800091288245
0.205078125,-7.49184640503198,0.826800250272221,6.177738354159626,-0.12537704386131016,-0.45390451420458244,0.28368376647439764,-6.572598139500799,0.5177742961086643,6.829087603295904,-0.06428673614848693,-0.4693461027002755,-0.03981186931205038
0.2099609375,-7.478293725677113,0.8416161951312113,6.253051766090229,-0.1270539573871639,-0.5141388281667292,0.4052888741009572,-6.558171944319931,0.5511641725454827,6.862265188400488,-0.001825420214160493,-0.5894138881508157,-0.04238165473649433
0.21484375,-7.448922335379485,0.8221108747655754,6.206612902591827,-0.002830458952851327,-0.4535993910689538,0.28607136138427075,-6.5343824125585055,0.5703492646889713,6.8715926604753585,0.054672829003281784,-0.34651892221977637,-0.16384839340937785
0.2197265625,-7.429595679634375,0.8268673151595943,6.202191934221075,0.1815224125612218,-0.3324936830911961,0.22905921571727947,-6.491843138088341,0.565889431279824,6.837985225046006,-0.06728095775251056,-0.2879225113109706,-0.09926296875003145
0.224609375,-7.502557409827309,0.7454790002055629,6.234321984484205,0.12028614153318543,-0.09129749539944337,0.16757565594545715,-6.510476447510389,0.5655184576334398,6.885396722302816,0.1147269506225295,-0.10547375951537426,-0.040467915037128176
0.2294921875,-7.550063401342839,0.8511383759189726,6.223709023200214,0.18091018967820938,-0.1514067807327962,0.2294854616503588,-6.548724924021922,0.5942956746845174,6.872012912592718,0.29797890613652617,-0.10356287365038033,-0.04464499726577446
0.234375,-7.5356887354113224,0.8511497904231259,6.228629515152165,0.05878218031871673,-0.27243458011475524,0.22680967042502026,-6.587321072070642,0.6233619177789524,6.816174329089704,-0.006985963683051328,0.013083917008690164,0.08588810106249997
0.2392578125,-7.540174181398968,0.8317586525028035,6.195761089923141,0.05760566009878816,-0.21201135752434744,0.28783709607676544,-6.5680385586694605,0.6136255532705754,6.844141742308314,-0.008088132753528215,-0.04634731101171023,-0.03711760671530867
0.244140625,-7.482127526621804,0.8219346236161921,6.168514444411846,0.18204594653155376,-0.21183778590735639,0.16847130133181817,-6.572862127320535,0.5753996085843861,6.8202306667249335,0.05299589543542192,-0.04571104758041492,-0.038496961696385286
0.2490234375,-7.506302518188649,0.8220124106408354,6.1775365899750465,0.0020084742779154655,-0.2125963365968463,-0.07863229822458918,-6.568153363633267,0.5658827809158923,6.810640148020576,0.05458732520928573,-0.10651527345387136,0.02213105483076897
0.25390625,-7.502002240659742,0.8655497047379525,6.233783100412081,0.0029824478163874755,-0.2126912208136815,-0.13953039290241745,-6.563128049655169,0.5656704412817221,6.843600646043338,-0.004727109465089228,-0.10807610273846366,0.14593880391224173
0.2587890625,-7.502438996152137,0.7839280287099908,6.2388467139856125,-0.0005677204721972773,-0.031440959069112935,0.04354962970847203,-6.591656380801631,0.5177565765152726,6.8246099325835985,0.05635637141468364,-0.10742363016719209,0.14455754663127404
0.263671875,-7.525688347150478,0.7787805386883252,6.172735656439904,0.12082868036802646,0.029331758496225362,0.10697266177254126,-6.5823091476185445,0.5322681064453513,6.810482942532704,0.05636480604058512,-0.10742901531045233,0.1445573333003722
0.2685546875,-7.501691144200714,0.8172837954384266,6.191724102400547,0.18109712583904525,-0.21176099947091723,0.22935262175542015,-6.582232430051242,0.5561234356202842,6.829592338220623,-0.06439988193468081,-0.22936889690207007,0.1461559133767554
0.2734375,-7.482675517672903,0.8318043105194167,6.215443057730948,0.24281542370624562,-0.33229578764428397,0.23026214379443663,-6.539206523983874,0.5560428771873499,6.857356586403695,-0.002260109989924608,-0.16935908759148338,0.2677778874947988
0.2783203125,-7.506428446188937,0.8461321637635667,6.19621750277857,0.3049222720714923,-0.03054413382874008,0.11039861397363439,-6.539230679080084,0.5991173485224625,6.871941270871923,0.05722918824216688,-0.10793228100911856,0.20575409333417724
0.283203125,-7.5494043764582255,0.8652828299222257,6.176672633066689,0.12256906995174628,0.08952352003668018,-0.014670771747995092,-6.510987234203801,0.6042136539923394,6.838609723158622,0.05813344322472523,-0.10841041913931695,0.2669711735382857
0.2880859375,-7.520810626445571,0.9086895308865728,6.214502653131549,0.12375569263531722,0.029075823460339174,-0.07571028498189218,-6.5300224059570136,0.6089605774329708,6.8388973710015195,0.055849866657765875,0.01274514945656259,0.2069293176494189
0.29296875,-7.520410635678003,0.8411330996996744,6.158438359358094,0.061486062697583166,0.029007720853320665,-0.016002370709959572,-6.491929535677264,0.6281509307702989,6.852762395382644,0.11482313521695006,0.1943644519264391,0.2072992344197375
0.2978515625,-7.5349037825264205,0.8411744913036477,6.162912212215116,0.12466671721292905,0.029050293693736767,-0.13656020003339012,-6.510964164656181,0.6089782970263625,6.843375041713826,0.05235289650210553,0.31443174130539076,0.20986298926530692
0.302734375,-7.540818312116806,0.769480304470341,6.224224344067568,0.0018446354579599914,0.08907166759533196,-0.13879591038916622,-6.524817873425216,0.5416257532598502,6.866466971396743,0.23277138687630888,0.5576861534790134,0.2080506604802761
0.3076171875,-7.535710942178024,0.8463469622418301,6.228651070515051,0.001159859891239223,0.028767695258290833,-0.07808321855363559,-6.582241024524272,0.5944011499165562,6.844128901221749,0.35146577511569144,0.8606824475203283,0.20818718764161812
0.3125,-7.525214625208064,0.8940748180934825,6.176915500135153,0.18451312124739733,-0.09135584161803316,-0.013904129372056902,-6.601230057182245,0.6086773594252337,6.853947186175055,0.1097556386257145,0.5569436034271698,0.1495944590177314
0.3173828125,-7.568523589736163,0.8026812269201531,6.143774886556163,0.06220407301383022,0.08932796698741038,-0.07672044197152558,-6.572931335963396,0.5611056794823169,6.8059347110593205,0.05097658073769597,0.4351616397763796,0.2110403763465513
0.322265625,-7.510225213441881,0.8216213610131885,6.1070045640585855,-0.18079754772501982,0.02814387669251184,-0.20341890488267927,-6.596775058518799,0.5467494583824861,6.791938163363452,0.1729484781542307,0.37655921580103235,0.14646638782782995
0.3271484375,-7.46816754389944,0.8221308594987888,6.206315143195207,-0.3019846193029229,-0.09298611247036874,-0.26698502363961907,-6.563460703343472,0.5850822674708069,6.810772752295038,0.11434219083034329,0.31463870138668587,0.2696853955592606
0.33203125,-7.473178774171483,0.8174122366629866,6.220353775922399,-0.24135869989702136,0.08820643369559093,-0.26536886043389357,-6.549188486071505,0.5946810427423275,6.815406547535498,0.17630786525320422,0.31479329784354715,0.32950665480156854
0.3369140625,-7.496916808520743,0.7836061958779273,6.1825550849809225,-0.058186604999927775,0.26976661072368596,-0.26134122634291507,-6.549249643015629,0.566028956528554,6.796249030380476,0.23580146491255455,0.3762278566642499,0.26750112483472677
0.341796875,-7.497516592946906,0.7694353388206109,6.224894302709961,0.1277573164466543,0.20979369345886445,-0.3796436832246977,-6.56351489413745,0.589911138514465,6.806103676674039,0.17592942646224957,0.19504962564650907,0.20591262853057918
0.3466796875,-7.545059550912453,0.8414221111568246,6.20503788415719,0.06506926025915596,0.08908759003548611,-0.2593774125484663,-6.545131097460549,0.6909497819668661,6.769137124402587,0.05419272052567624,0.31353545595995397,0.33227008565407895
0.3515625,-7.520817939045499,0.855752808676068,6.195951072505336,-0.12022912210594047,-0.03198295968943053,-0.14149870267157427,-6.50651187986421,0.6666481819064541,6.8297410264608045,-0.009406541777990322,0.3741395529148574,0.21182839073142937
0.3564453125,-7.473164014488168,0.8462820118588867,6.229618788554063,-0.05779999767814324,-0.09225595102362634,-0.2013257811083198,-6.525166630510993,0.5897538936723433,6.843362200627261,0.11025162582947831,0.43667584007522936,0.08722713123978508
0.361328125,-7.4874645457944595,0.7981103002714608,6.2014279882085255,-0.05912909408469761,0.26981915359019004,-0.20047040729863222,-6.568648589703501,0.5997812202359513,6.763805027409279,0.1687072666802648,0.4387311458487682,-0.09779407461728731
0.3662109375,-7.511683950894711,0.7885824309335132,6.210493244497496,0.0023661686787143964,0.2096635789984214,-0.19940593434681111,-6.601779474046456,0.6474046697889508,6.802442989942759,0.10622671411634477,0.5587988832615509,-0.09525105297859823
0.37109375,-7.482342214447173,0.7883412294011864,6.173362504356528,0.12302206850405353,0.21012196837731262,-0.07525546522997183,-6.5822877063938074,0.6087914210330779,6.844273265623057,0.1707646514400726,0.2577098477025944,-0.09956495744697968
0.3759765625,-7.477553186325617,0.8220352396491422,6.187377573878949,0.12165860208199594,0.33085332228420694,-0.01411162403379083,-6.606278983482258,0.6280446132099488,6.825896371108805,0.047927228743339954,0.31681167499284846,-0.0962062089413324
0.380859375,-7.429899261768285,0.812564442831961,6.221045289927678,-0.0004022036872532447,0.45109816488732996,-0.07711354700480805,-6.60623926776287,0.5801733848359957,6.811263565173474,-0.010479967194482766,0.31479999167178124,0.08882621101134593
0.3857421875,-7.416390928705093,0.7792728967158054,6.282482738273669,0.24330712577551558,0.5725105039755907,-0.011162675835026075,-6.553982561799106,0.6186202555321604,6.820424233553062,0.04970134032461855,0.3158515755044586,0.02622514895623261
0.390625,-7.449714600864314,0.7791494516745486,6.253778624902662,0.4863175659395573,0.6336842919170057,0.11553077194110065,-6.620727705436449,0.5659705365545393,6.778278465937301,0.050422324145789114,0.25556541176345576,0.025644479434063575
0.3955078125,-7.497087150054438,0.7981202926380675,6.2012791085102155,0.6678469747519323,0.7550375430150413,0.2411635917023256,-6.577694833218935,0.5993709353790366,6.820531155654396,0.11198380483393741,0.1359393359718017,-0.038132805220479536
0.400390625,-7.540085219848698,0.7739662960028764,6.167836719850837,0.4843006922826149,0.9355302144233868,0.17712743145294235,-6.5873060542217585,0.6424847179246796,6.825801209134318,-0.010863713613192948,0.19502711508833045,-0.03477934075957859
0.4052734375,-7.5682644883773875,0.84588027749775,6.1388837158857115,0.5434360177760047,0.7548759401594428,0.3605257446498638,-6.611359031028627,0.6570053810723449,6.79794179897676,-0.07408676082209753,0.07558863041430934,-0.27940919413555065
0.41015625,-7.544259972827696,0.9373202564583563,6.176423742472569,0.544002603801688,0.8754370898172257,0.2998884431135325,-6.592432783637664,0.6858357569035975,6.797991001403581,-0.07427683892258671,0.01569668442204494,-0.34120939434246145
0.4150390625,-7.568035040868703,0.908343446908656,6.143300668572695,0.3653313377680419,0.7539474685502963,-0.008359153454590025,-6.554214885598193,0.6427324967456333,6.801796052536169,-0.2589231324438774,0.13446783966655396,-0.33585581787956903
0.419921875,-7.548819418957108,0.889085746396197,6.138987477016366,0.3068832889945149,0.7535734723737557,-0.19218850530362336,-6.549591976725552,0.6715576113830466,6.797307702656735,-0.13784340601170705,0.07630506292224154,-0.4616462901860828
0.4248046875,-7.4824608298475335,0.8653977047344225,6.2105949977862664,0.12615933053048048,0.9337758920738631,-0.4388855059511545,-6.5685493453628725,0.6523207496294751,6.797354743164119,-0.13962522103056194,0.07724423964743778,-0.5840663879589993
0.4296875,-7.478093730293328,0.8078379795377623,6.225019619203501,0.24919581362100096,1.0547407591710927,-0.49707351059209093,-6.563570170480015,0.6425791239272587,6.820784604076473,-0.32427027747117976,0.19603423927138192,-0.5787264798753539
0.4345703125,-7.477834628934555,0.8510370301153591,6.22012844853305,0.5537226695580335,1.0557013777521738,-0.3693432183454705,-6.563128049655169,0.5656704412817221,6.843600646043338,-0.38626466706656154,0.19586933224677863,-0.6385345257529703
0.439453125,-7.55401575044616,0.8700114451246347,6.162485120641187,0.4314097908698697,0.995077187150027,-0.3718673763822014,-6.606268760686342,0.5180082273599732,6.78233480357253,-0.3272520680793455,0.3775573540572229,-0.638154771347473
0.4443359375,-7.545496440888309,0.8368041043539725,6.237939646351484,0.12826858389571452,0.8733461346684008,-0.5607647132691291,-6.60616897357142,0.5466281995689292,6.806209517815654,-0.2624972637068099,0.13635814695100593,-0.5806865613321593
0.44921875,-7.540070594648841,0.879839740423886,6.204939881103265,0.007634776783725289,0.8728638908759424,-0.6849293236175558,-6.610506453399586,0.5367010870435206,6.8533451273564125,-0.321313261951106,0.014584935987089797,-0.5192628305089634
0.4541015625,-7.543934116685354,0.9179241223547304,6.143629757092699,-0.05500141121762604,0.9934450089886352,-0.6249771978158453,-6.6159872777285305,0.5229406376237966,6.7589167027870225,-0.321073999924062,0.07447870233216526,-0.45745416802500277
0.458984375,-7.592483893477639,0.8363524081598024,6.147948972174682,-0.11588852146114016,0.8726533686276944,-0.6264186680340664,-6.6111862358507825,0.532482382091395,6.768387458303481,-0.1980314014833889,0.07526730394711303,-0.39902375575372345
0.4638671875,-7.577961092779131,0.8170468977225199,6.134166995960224,-0.30047393902582115,0.8118750799336184,-0.5692663113355461,-6.6061764824958615,0.5370667994960655,6.801396077793346,-0.13379247216791,-0.04571772596486731,-0.2791675752171262
0.46875,-7.582394745391715,0.8216963037627386,6.105887966321263,-0.30076712655172444,0.6309263125460829,-0.5088038849322231,-6.592113519475361,0.5755424590150818,6.792167010572119,-0.13359062649822787,0.014149330499570323,-0.21737561057919302
0.4736328125,-7.587472663205595,0.8410710309956045,6.13391033944749,-0.36211511367828025,0.3894537349389254,-0.4496872350499663,-6.611310720836209,0.5708564384021195,6.768772430040303,-0.07001886435240692,-0.04647141655522411,-0.09692894277000445
0.478515625,-7.548797077706945,0.816884905352383,6.1111277730327185,-0.2414766375624747,0.3899116705979114,-0.3255313452903779,-6.577501139590648,0.5752908081703813,6.834442139583186,-0.13132743313647766,-0.10700874148407521,-0.15733966866137164
0.4833984375,-7.515850987823401,0.7738621059241696,6.15411740188315,-0.3622534012568266,0.14813119885289205,-0.38935550906789634,-6.5779271570180216,0.6234831765925095,6.8019029746375015,-0.19237976735514564,-0.10763479288602829,-0.15595735614265593
0.48828125,-7.473348913979987,0.7164208295854627,6.197320576520547,-0.4864590468587342,0.3288685938729626,-0.3304451180477229,-6.558815267697507,0.6425915823268109,6.820724722482525,-0.1932796368208537,-0.10718868578606339,-0.2171711600410335
0.4931640625,-7.5159916755070055,0.7691120838510007,6.16353330205501,-0.366704448576794,0.3294213059302347,-0.1454228927764156,-6.539794028244589,0.5708827443713165,6.79146019157158,-0.19099334655583927,-0.22833734771062442,-0.15711250823271194
0.498046875,-7.549256039966045,0.730460401143126,6.116212941969134,-0.30785429821877014,0.2091519999171721,0.03815359500014438,-6.597023485715357,0.5995780138193674,6.783033105325377,-0.13059513568120087,-0.16733007340883244,-0.1579285129940162
0.5029296875,-7.559256293743428,0.725825983652817,6.144268652060632,-0.1264306183906833,0.08917864938549551,0.22410420093384037,-6.635117441543696,0.6282267748511748,6.788518083967685,-0.2529348752021775,-0.22843950380303266,-0.216959401639298
0.5078125,-7.501920591709399,0.7548206260275206,6.187307149713564,-0.0041640437903941365,-0.09149471035864075,0.28693835971924864,-6.6015460646987805,0.5754533142063423,6.801721167936219,-0.25264288581624184,-0.4085567613259144,-0.3411252169635327
0.5126953125,-7.54908590015754,0.8314518082206499,6.139246141370986,0.11305747801541395,0.09021153905494739,0.5941290298359985,-6.601622782266082,0.5515979850314094,6.782611772248299,-0.374408614069838,-0.2900543447362074,-0.21474642751419287
0.517578125,-7.553941548579204,0.7833493134288073,6.125295737937219,0.17547435183449922,0.029993973187079057,0.5343265876752777,-6.635317558547835,0.594906387617831,6.750443656993154,-0.19165108505263143,-0.1679274164959612,-0.15654070555423988
0.5224609375,-7.563453119005669,0.807373446701892,6.125039081424485,0.23508979948790001,-0.030046723907083336,0.6571354899984374,-6.601808966969928,0.5852395123129284,6.773514228341815,-0.2520496123562709,-0.22892108942641656,-0.15573353277822916
0.52734375,-7.592883682520018,0.7884033355090365,6.162256043016992,0.1744543446084503,-0.21121865055942793,0.6555285248256966,-6.587211604934099,0.5658650613225006,6.80616247730827,-0.18820100197199446,-0.4696664749486188,-0.15946489647801165
0.5322265625,-7.5059841091296935,0.8266832235518143,6.154029172589726,0.05160412305022563,-0.39257710425587355,0.713569273763631,-6.577717359992262,0.5706867351604457,6.806090835587475,-0.12572700131380252,-0.5897252971424629,-0.16202608804199528
0.537109375,-7.434406914522635,0.7883704767303431,6.188198420061537,0.05243276288078432,-0.6339789923490428,0.7130117339206494,-6.577717359992262,0.5706867351604457,6.806090835587475,-0.24679989795904014,-0.5315665523878912,-0.0362404496748474
0.5419921875,-7.387115879799393,0.8031250452521465,6.259335738531737,-0.006653105879091467,-0.4533741604577808,0.5295783511145267,-6.572939930436426,0.599383393778589,6.820471274060447,-0.18394361534598783,-0.5318701416428309,0.0847851788027645
0.546875,-7.497331558971627,0.8222928518689255,6.229354366122714,0.11127645974283419,-0.21133768399288286,0.7760570307015692,-6.529937093916679,0.5945381923116316,6.843470203688313,-0.12466649437038503,-0.5303492145621127,-0.039020354119900465
0.5517578125,-7.540566590599689,0.7982444674499877,6.214700667081283,0.23244632655039163,-0.09021450856737467,0.8396245861806892,-6.530208047886564,0.6186825475299219,6.820124825583319,-0.06516108796607924,-0.4689165600781918,-0.10103639522267506
0.556640625,-7.535325845577232,0.8269244250841411,6.1911599127306935,0.3538569687076118,-0.029479318109248143,0.9030286671904146,-6.596606062761016,0.5896633596935112,6.830108833272188,-0.12674495434796468,-0.3492811267062063,-0.03726870762195544
0.5615234375,-7.539811426048337,0.8845369563889282,6.186129636122432,0.41823839434259885,-0.08986868633156675,0.7214331466402818,-6.577516157439532,0.556168008024654,6.824815259538573,-0.06815304276370243,-0.2873986985839184,-0.16048258007609728
0.56640625,-7.529988960888035,0.9277524176539819,6.186084517554778,0.35771613708882083,-0.029784020909505115,0.6594804039684162,-6.577501139590648,0.5752908081703813,6.834442139583186,-0.18992574263858347,-0.16890204287227914,-0.034115595125271486
0.5712890625,-7.596695478423196,0.889030096012977,6.1194543889068695,0.2363951908832518,0.15083598724313904,0.5357741903390745,-6.596691374801349,0.6040857448148504,6.8255360005853944,-0.311370397947461,-0.23048530097908712,-0.03193165679405612
0.576171875,-7.591758382776377,0.9419090159320518,6.128686064573265,0.176965143085966,-0.090784890735883,0.47312247149005054,-6.577354670606191,0.5895205092628154,6.8581724894250025,-0.2491106283635807,-0.4104315455448621,-0.09628772720527885
0.5810546875,-7.568901373737028,0.8750404862883471,6.199817624966734,-0.0057562835034460315,-0.15170190738560854,0.4085256440990156,-6.591889247375011,0.5657883749133132,6.815656753078422,-0.24820013294806254,-0.41087761489053887,-0.03506988929640306
0.5859375,-7.539826252973382,0.8941690158055827,6.19078369780115,-0.0036344814129751967,-0.21220001563302468,0.28661921380743577,-6.620363387727495,0.5130456391032058,6.80133511523968,-0.3104801439027999,-0.2309240808447214,0.029296905581654296
0.5908203125,-7.549189688632856,0.8988762241372316,6.171824573122006,-0.1250219367697454,-0.2729361129484958,0.22320795574930946,-6.616019484523477,0.5803732660706135,6.77836294874466,-0.18760256271862016,-0.2900113915305164,0.02592167476934706
0.595703125,-7.553904716612647,0.8940255860311126,6.162377343826763,-0.30601502233804945,-0.2736350313992113,0.03698300798495491,-6.6109786099222,0.5753641693976027,6.81127532530032,-0.24660414097550024,-0.47166700657591965,0.02555023522573118
0.6005859375,-7.52537745241664,0.8460201332264633,6.172433881359515,-0.42744426679430636,-0.3343827276643443,-0.02641878407043206,-6.591865092278802,0.5227139035782007,6.801072068610193,-0.24273522827705196,-0.6536216943298455,0.14622740813963125
0.60546875,-7.510595415875899,0.7929100041416685,6.125922585853844,-0.30513726402452934,-0.2736885656137,-0.02386572492575002,-6.558573806651095,0.5562820696324983,6.8151413389865745,-0.11899679449522835,-0.7131945560021793,0.20407019395288573
0.6103515625,-7.540188941082283,0.8028888773069033,6.186496077291475,-0.36713846105609643,-0.3341260809617396,0.03567276607509274,-6.54936607630232,0.5900448557275743,6.791772440627888,-0.18056401963645394,-0.5936101619734052,0.2678391662001349
0.615234375,-7.5110693395435035,0.7931212285741752,6.1634999650897395,-0.4291614181164667,-0.39457899366173527,0.09521529804618528,-6.5536804865828655,0.5848823862361889,6.843673368723851,-0.061613080815000415,-0.47075200338996115,0.1438075095521566
0.6201171875,-7.539722397256337,0.7882427652764464,6.144286191739748,-0.43075848464710176,-0.2134663214345423,0.15651886315095453,-6.563646345273023,0.5948042375677579,6.792000206876837,-0.00438145950272495,-0.2881657121177619,0.021757797189340778
0.625,-7.56883455171173,0.7739434669945696,6.157995735946934,-0.3695632681143376,-0.45457322187245197,0.21804641015306397,-6.573387931862831,0.5949720047975584,6.763816787536125,-0.12671354754338626,-0.34928909337872976,-0.03725969716609786
0.6298828125,-7.549093279999197,0.8170169206226998,6.134613635055153,-0.4315510097581904,-0.515038049837918,0.2775728235692991,-6.5682392184478955,0.6042247232217993,6.8157423168454985,-0.12763003827095604,-0.3488370224814234,-0.09847685175393506
0.634765625,-7.544652180303228,0.7883005675678765,6.1536060966995665,-0.4929309569743446,-0.7564986857228769,0.33670472099722976,-6.5823874935087305,0.5801714488241221,6.820398551379934,-0.12546867064582753,-0.2299968845526197,0.14754086736572786
0.6396484375,-7.591876661968089,0.8264563182025143,6.096323186451094,-0.31000603714791025,-0.7558996257230554,0.40117461952182437,-6.625475099294516,0.5755194782278508,6.783151787553557,-0.003095374413193538,-0.16882863650752927,0.20655839633538242
0.64453125,-7.58265398123395,0.8555009224102512,6.138617285612477,-0.2492263099780418,-0.8763695356133622,0.4629579364780005,-6.582727656121476,0.5900218749403431,6.782757217609325,-0.06506785864418903,-0.16902427652051988,0.14673990498951037
0.6494140625,-7.50179479819257,0.8077045421298987,6.196464385530804,-0.37053121056395455,-1.2387961921478081,0.4597270913962666,-6.587064050401052,0.5322556480457991,6.810542824126652,-0.18445452127028752,-0.4116383426024287,0.14718127073978418
0.654296875,-7.501802245275957,0.8317714891445034,6.205750953525353,-0.30937304540097527,-0.9370012734849056,0.4007330197242732,-6.558852269545421,0.5708650247779248,6.786982520859274,-0.058215386598256494,-0.5324684554344141,0.32686120052077927
0.6591796875,-7.477390224633581,0.7930862552910519,6.164021044033824,-0.24877277442347767,-0.7558057009162529,0.40236030073711393,-6.553780816472083,0.5801819712118009,6.829473655992444,-0.12319055919150756,-0.3511604620163066,0.20758215654138515
0.6640625,-7.544807694911877,0.793182604911362,6.167676058550143,-0.31055370600098614,-0.8765459692528519,0.4617731642727101,-6.567874357964647,0.5273802685858977,6.829123964636161,-0.12300545804904112,-0.29127064367700056,0.26938803394486277
0.6689453125,-7.511084233710278,0.8412551226033844,6.182073101078839,-0.25020025366471865,-0.8763513953190205,0.523826863523805,-6.587204638783951,0.5993460185799321,6.8206509188422935,-0.12240799510490005,-0.11162732268859571,0.4547621173726688
0.673828125,-7.491824198265277,0.8316030784535167,6.177716798796741,-0.43448294975667623,-0.7561825076188089,0.5205134512105178,-6.587195501536625,0.5371487470990922,6.796439354329451,-0.11961354537393755,-0.35298150321792404,0.4524323262149824
0.6787109375,-7.501387562066804,0.8315866677660599,6.172870746693944,-0.495028382242883,-0.6960698764381356,0.4585784545130563,-6.582650395779879,0.5899576469307081,6.79219161178553,-0.059921194282754456,-0.2316784855100637,0.4522060548264442
0.68359375,-7.559293461918635,0.8076588841132855,6.176782417722998,-0.3117081481290425,-0.8161356029365441,0.5227875906158647,-6.578196482665022,0.5758688602570963,6.749532591997358,-0.17977106048021269,-0.3540743771227664,0.5150300907273193
0.6884765625,-7.573727368308602,0.8076738726631955,6.176559098175534,-0.31213937546150683,-0.6954448837427746,0.5230681382742052,-6.573101417269768,0.5660308925404274,6.787114044174017,-0.17820402384484665,-0.4148847670799172,0.5756534073531057
0.693359375,-7.573179444499233,0.8363060203725255,6.143549559166814,-0.4337304085577027,-0.6958521289392202,0.45978764157729446,-6.591982611114081,0.5945689171463567,6.815945481881037,-0.17751234314037015,-0.47521680710560504,0.5750555749039474
0.6982421875,-7.572698140989972,0.8505296835379689,6.11060468624675,-0.3746371241442814,-0.8765043442658292,0.6432010628367816,-6.601972624900449,0.6475652398130383,6.778857004502251,-0.11202180075444401,-0.7767426602122585,0.6319372521181423
0.703125,-7.582720668775787,0.8795942724789192,6.152601026011514,-0.3725027148796274,-0.9369902564924221,0.521293370415581,-6.592361946671919,0.6283710144519631,6.783261952534044,-0.17558662549850995,-0.7161117548383176,0.5114960841391895
0.7080078125,-7.568345935602541,0.8411038523705178,6.1436024436530845,-0.5530867157631985,-1.0583714706441152,0.3347983351554911,-6.587421401959859,0.6186615027545643,6.801974616358296,-0.23896403451084688,-0.5956024063050488,0.45284777745011007
0.712890625,-7.505702801004216,0.874685102310707,6.1491164465563894,-0.6161199556247187,-1.3600947457929056,0.5155195696137066,-6.606409891843537,0.6090181550786741,6.802117899799886,-0.24055183489121637,-0.5347862106416256,0.3922226367131036
0.7177734375,-7.4820831130883985,0.8315402799787833,6.168471333686076,-0.5541409143356326,-1.299656837332974,0.45598682527396606,-6.549381094151203,0.5709220555818469,6.782145560583274,-0.18017792440895133,-0.47385305801101135,0.3914380065257339
0.72265625,-7.511520989202674,0.7596334465754229,6.187136714652369,-0.49428459170474565,-1.17870044317809,0.5183681618280711,-6.554260481919138,0.6092836534930193,6.782590413914044,-0.1799780812277972,-0.41397414057847615,0.453226288080889
0.7275390625,-7.491890818565385,0.8171945939096299,6.177781464885396,-0.4358198453113348,-1.1783617635431476,0.7021798515818101,-6.539594996789038,0.6520422459737962,6.848884621569544,-0.057850873940106746,-0.4127385037140511,0.4504347701288797
0.732421875,-7.467523345939872,0.8459073729186966,6.1639328147404,-0.5571991573981815,-1.2391285025528298,0.6387550180050934,-6.530138839243704,0.6329764766319912,6.834420781248931,-0.06312133992880863,-0.1101168163989672,0.33095159548365066
0.7373046875,-7.473030572162762,0.7595934771089962,6.187732233445608,-0.5595856146871212,-1.1182845706117204,0.7608182002226664,-6.582364966735405,0.6088556490427129,6.834838871446854,-0.06311768846931672,-0.11007966269741629,0.3309490433727041
0.7421875,-7.52093628547894,0.7788019455590852,6.177507268693546,-0.31750974233057017,-1.0570444644398107,0.9483845862940541,-6.591618293405126,0.541644019695023,6.839002131183416,-0.0004637132862991001,-0.1702450928795142,0.39019656658318763
0.7470703125,-7.535207364660331,0.8268716189760144,6.181765567921719,-0.19725000347944016,-0.9359008084448068,1.0728007778631667,-6.591911774148336,0.5371041746947224,6.801216433011501,-0.12171025847457784,-0.17195866495486395,0.45419000955133165
0.751953125,-7.511069406785233,0.83162306318673,6.177419039400122,-0.32010876934633226,-1.1172084998722311,1.1308620377283078,-6.596535225795272,0.5321986172418769,6.815379784402651,-0.059050810353655066,-0.23213158046236157,0.513424300862722
0.7568359375,-7.525777308700749,0.8365728951882523,6.200660026512208,-0.26028793229132097,-1.237584447209695,1.2535371045509809,-6.582294672543956,0.5753104637756464,6.8297848240890335,0.0013269731837790076,-0.1711771773715038,0.5126132379325611
0.76171875,-7.56414924482376,0.8365600585465525,6.190670162909995,-0.20133274067229845,-1.1165745498350401,1.3767766768455032,-6.57288573964245,0.5945545227349309,6.825140349681446,0.0015236922358203544,-0.11130654723462592,0.5744080399414839
0.7666015625,-7.544519006944742,0.8556193712682046,6.167395838832639,-0.32249980465279027,-1.2376739806294184,1.3132173601213342,-6.61591915463426,0.5850736810950015,6.792562661476068,0.0031345089268619286,-0.17207495660414415,0.635031548663061
0.771484375,-7.520477323219841,0.8652264497683424,6.17242209975713,-0.3220646059450503,-1.358374990526591,1.3129317585558524,-6.596852318860395,0.5468136863921211,6.782503769187248,0.12757285355315132,-0.29197153892465816,0.6923033216622392
0.7763671875,-7.501091427016282,0.8699564871082979,6.163303958981891,-0.2631181461953597,-1.237403743308308,1.436160802641627,-6.549443879418211,0.6140286409217771,6.792013047963401,0.1888429434938361,-0.23150316249502492,0.7527032116342394
0.78125,-7.4580785302969765,0.8844784243268347,6.192092285962552,-0.3875759808691926,-1.2376437197689225,1.5555093734638537,-6.549420809870591,0.6187932839558002,6.7967783665186055,0.18953968670516005,-0.29184406847045136,0.7521154636592104
0.7861328125,-7.415754245070643,0.8656181917628725,6.2633060521237915,-0.388764849431028,-1.1772697097176645,1.6165213340431297,-6.544364917420431,0.6329069874285168,6.8393176231188795,0.3118677305930028,-0.23071995046433305,0.8111278674160481
0.791015625,-7.41625024102149,0.7840229187889741,6.273066838101809,-0.38756945522597636,-0.996355198263615,1.4952081522988363,-6.5871273784423545,0.5992817905702971,6.830085313018496,0.24780955894793574,-0.04983296281709893,0.7530667940331732
0.7958984375,-7.477945595526338,0.7885210545963266,6.2063171510370925,-0.2675424728500772,-0.8148126470254605,1.6197908185950494,-6.6251338511331825,0.5178299377424941,6.801443118300731,0.06140374768366946,0.06992188200030222,0.6359993264833458
0.80078125,-7.458967002690274,0.8078708009126755,6.234711723409094,-0.14665706183513322,-0.874707091924814,1.7437921083444743,-6.582494789548095,0.5419900765423025,6.791710397114503,0.18852149496555584,-0.05138179607234809,0.8768935723769556
0.8056640625,-7.498064516756275,0.7408031911112808,6.257903841718679,-0.08679587273451449,-0.7537470091500728,1.8061729674544331,-6.615709900382794,0.5561967968475057,6.806425523937757,0.25118866363381986,-0.11153598753719157,0.9361197558978366
0.810546875,-7.530551509897261,0.793246825523642,6.181990895311069,0.15529984811989214,-0.692515969343482,1.9937310245568787,-6.606299881932699,0.5276017414376543,6.782431046506735,0.1887197254824754,0.008513968706913915,0.9386910319359494
0.8154296875,-7.539241160988805,0.8409682630544444,6.125260393130065,0.15503554592949595,-0.8734714369469198,2.0541819783601634,-6.60636909057556,0.5133078123355852,6.768135090841122,0.37354723780656435,-0.05040191413120027,0.9951528146728835
0.8203125,-7.563149671355219,0.8986799882546349,6.134023874338645,0.15624271015927857,-0.9338851317575467,1.993148035749127,-6.61120179647396,0.5372791391302356,6.768435579770584,0.3163505671435369,-0.23297320868325935,1.1171986516110088
0.8251953125,-7.572572481956602,0.9804172688654564,6.147600070684753,0.09669734528800666,-0.873870770739474,1.8703058019448509,-6.606300424706994,0.5515212986222222,6.792106048018452,0.4405910496391687,-0.4127442835244108,1.112657142621995
0.830078125,-7.558479124150563,0.9324268046107173,6.157433288670042,-0.08432733237244536,-0.8745705701732713,1.6840908244568111,-6.606137852325063,0.537034685491248,6.806113274881449,0.43860758065504546,-0.4716977562233366,0.9284404260926982
0.8349609375,-7.577657712370411,0.9468552738878175,6.157070863184767,-0.1430443838547503,-1.0558874564706149,1.5607169497146582,-6.58714990521568,0.5705975903517061,6.815644992951575,0.4412777142098599,-0.47310143639410174,1.112067262936359
0.83984375,-7.5247407687821894,0.9323654282735305,6.153257195209638,-0.2651890678341263,-1.1769333246021403,1.5580407380948538,-6.525244433626884,0.6137376788665462,6.843602807962775,0.5021470089291501,-0.5323991546543774,1.0488784144870587
0.8447265625,-7.525503447658658,0.9086417209617494,6.2050338684734205,-0.44809500579605216,-1.1775056425989683,1.4935738422725648,-6.515851604122853,0.6616980520492389,6.848681456534005,0.4412660335992916,-0.47315920696017716,1.1120552922402185
0.849609375,-7.511217474310494,0.812438153515611,6.1822024332561485,-0.44531042325505765,-1.1776787891839977,1.3109697423837694,-6.516834004564584,0.7151367735776528,6.750149653822001,0.3758664042468062,-0.1716139726086945,1.0551639109365993
0.8544921875,-7.477738287542626,0.8076795612133821,6.1968365847765785,-0.44415443301331947,-1.2381089546388522,1.249947315035167,-6.573606323361623,0.6860461605258942,6.774165489587278,0.2519205912436014,-0.17190738138644798,0.9355159844356452
0.859375,-7.473363875388492,0.8030565582272265,6.229812786820028,-0.3849950421502111,-1.1774734184958673,1.3730393512147887,-6.558614065144778,0.6280728551910192,6.839449146433623,0.25168175326038067,-0.23180055879397296,0.8737264877065798
0.8642578125,-7.492498050074936,0.8270906838669179,6.2294072506089835,-0.20113732628538242,-1.1769649351031237,1.3766266423018727,-6.596737513896589,0.5945564587468044,6.816005363474986,0.12705827473132825,-0.1717606077058116,0.7546732821943904
0.869140625,-7.5447410746117685,0.8075910894552488,6.167611392461488,-0.14167504328197386,-0.9353155389307621,1.4392786093974024,-6.634984904859532,0.5754945614287461,6.783271550741454,0.12479039157725903,-0.05058648467325884,0.6946369645549175
0.8740234375,-7.521121521179409,0.8414499363484346,6.214804428211939,-0.201556196897417,-1.0562673905219013,1.376905714465919,-6.597131867303311,0.6092357559066836,6.77369495408338,0.06740151992889362,-0.29306394299728855,0.7548909632812887
0.87890625,-7.554252779521692,0.9086188919534428,6.195192884569518,-0.14044407227380937,-0.9957566211910113,1.3782265704087795,-6.591958998792166,0.5754140029958119,6.811035798924525,-0.05287784388098162,-0.5352243514287255,0.6941170952780181
0.8837890625,-7.529774205820937,0.9228439772564329,6.167317383299714,-0.07755925905316997,-1.1766930230570738,1.3181216353849308,-6.577671220897021,0.5802160212284919,6.815621472697883,0.1891428080429636,-0.4115800146685277,0.628523548109839
0.888671875,-7.477812489409581,0.8943416929092094,6.234025967480546,-0.13718817060885005,-1.1166901292874871,1.195302530871376,-6.616067251941601,0.6426026515562708,6.797857316169401,0.0680964915318659,-0.353395595773257,0.7542926025380791
0.8935546875,-7.444170340949676,0.8606341162488902,6.2253035891558515,-0.25860886071514655,-1.1774425004000066,1.1318966522392853,-6.625437011898012,0.5994069214076012,6.797543986153375,0.06929461575150007,-0.5339445845253283,0.6913307025388258
0.8984375,-7.449248191521827,0.8415070088692012,6.239406887971697,-0.13766158655281702,-0.9960099169889368,1.1955936245165728,-6.596884525655342,0.604246314838938,6.801950015144886,0.011196423782767473,-0.7160759098217404,0.7521741891493672
0.9033203125,-7.4876201276448375,0.8414941722275012,6.229417024369484,0.04618516326847859,-0.9954792082826821,1.1991926240080566,-6.596899543504226,0.5851235146932107,6.792323135100273,0.07138517892423803,-0.7149831025434835,0.6895794429331716
0.908203125,-7.472771605287447,0.8797961969117025,6.210679211395921,-0.014340632807265821,-0.9353926420811897,1.1372421971199584,-6.596931207524877,0.6186365859554597,6.802094379546194,0.13017688236035954,-0.5932151608270424,0.6281443950317672
0.9130859375,-7.482327656489047,0.9327165084347507,6.224384739919338,-0.07528743926159163,-0.7546199669697774,1.0755664505230156,-6.554393561377596,0.685935424100016,6.797511948651991,0.1324720768368938,-0.7143899176253501,0.6881751755260791
0.91796875,-7.482468344172651,0.9279664863615819,6.2338006400911965,-0.012764112031338747,-0.5735636355197616,0.9554250987251026,-6.544930980456409,0.7242701692002101,6.807211551377119,-0.053240818729422525,-0.6550185279116557,0.5704995690060108
0.9228515625,-7.529863100129477,0.9421344991438051,6.181322679061636,-0.01033072901382251,-0.4530480231335342,0.7730743613469331,-6.56371021608862,0.6857499372768239,6.821217697280397,-0.11541295234995896,-0.7150484188594118,0.4488847801283721
0.927734375,-7.510662305142927,0.9325088580480005,6.181663549184025,-0.010123610925702423,-0.5133978045523575,0.7729354287774505,-6.597186600871583,0.6379841841349094,6.778700879974097,-0.05679617162611464,-0.6531243640859178,0.3256701189160017
0.9326171875,-7.549360030166549,0.9133903208973717,6.1905485966513005,-0.2533480693024252,-0.5141746845123285,0.6464001599237928,-6.6259719536876345,0.6811765891016134,6.765341671477409,-0.2388063005883605,-0.8355467587058603,0.2668559329581864
0.9375,-7.548989827732531,0.9421016777688918,6.171630574856042,-0.18971746761188119,-0.6348285183973263,0.5255540033536507,-6.592191865365547,0.6234458013938526,6.802082619419348,-0.237444405477405,-0.9562519750092916,0.2656963934753245
0.9423828125,-7.534555921342564,0.9420866892189818,6.171853894403506,-0.18950332334093822,-0.6951785037754197,0.5254126135721515,-6.568541836438431,0.6618821497023387,6.802168183186425,-0.05878202076952699,-0.7121005435480383,0.14144859078668276
0.947265625,-7.539596805464698,0.9566321852164886,6.1952006504881325,-0.30985681670316656,-0.5146995201747018,0.3407936229328458,-6.611188949722255,0.6520801680142343,6.816762465862064,-0.2420183463534607,-0.7139566974620777,0.1456100216929324
0.9521484375,-7.558553191534059,0.9420852670814351,6.166784522753245,-0.3084779702676976,-0.6354256926008477,0.2796467056522526,-6.606804788024554,0.6476170094231211,6.769482491919996,-0.2407911734225397,-0.894511175738283,0.0826468926484201
0.95703125,-7.578346256621654,0.8749712694927638,6.185577228054963,-0.3700942889049294,-0.8165170241458003,0.33893428551906296,-6.597326646480188,0.6811549974844746,6.779133973178021,-0.2418744829062179,-0.9539354536606387,-0.040367291277786946
0.9619140625,-7.520869799662291,0.8702140993280815,6.205280751225654,-0.42949082036135167,-0.816857815762387,0.21597092411453028,-6.582945504845972,0.657176473484111,6.783430918148763,-0.30137228915950326,-1.015375462849709,0.02165268711241321
0.966796875,-7.52504428367437,0.8795607213333424,6.15819147660586,-0.3067064302723319,-0.8768541567136964,0.21822783570687462,-6.544565577198865,0.6235061573797407,6.810918197656064,-0.3610799017944874,-1.136711940249899,0.02187878739414989
0.9716796875,-7.506228518046884,0.8508557827826724,6.182104430202224,-0.3664082439533126,-1.0581181115706337,0.1557391584906357,-6.587421401959859,0.6186615027545643,6.801974616358296,-0.17891858153098408,-1.1942116873391622,-0.10530009011881093
0.9765625,-7.472801191895807,0.8605584811324568,6.206068260442973,-0.5486479307560063,-1.2397407142500965,0.0908405658722662,-6.544628362465873,0.6666127427196707,6.820785685036191,-0.18032295613411514,-1.0735657847582096,-0.10413322153919635
0.9814453125,-7.449196330905035,0.8270457182171878,6.230077209251378,-0.36695124532930046,-1.1787697347135353,0.21633483807718323,-6.539803708266209,0.6569995730367243,6.825346757596139,-0.12083886574022264,-1.0121384980601635,-0.16614440881784856
0.986328125,-7.439373798503002,0.8317593448696866,6.216113016373341,-0.368767301127338,-0.9373451224989029,0.2777680433423378,-6.5205523161113845,0.6568567226060285,6.853410413748953,-0.24421657869850724,-0.8328538415709515,-0.10039696179119113
0.9912109375,-7.4730159469629065,0.8654669215300058,6.2248353946980375,-0.30884325442005695,-0.8164201400739437,0.34011564046300485,-6.530332532871991,0.6570566038406465,6.82050979732014,-0.18502282152228688,-0.5913172466651618,-0.038228256134726864
0.99609375,-7.458870863023535,0.8800188358483626,6.253177082583769,-0.30810576679290297,-0.7561655836528562,0.27936700800908937,-6.554114555708976,0.6474329117700214,6.8159957652675764,-0.12800915405190785,-0.4686038597589562,-0.22207768619332274
1.0009765625,-7.468611948200413,0.880081634323096,6.262422547694434,-0.2451432909529067,-0.6957861960326194,0.15894722780381407,-6.582510892945568,0.5707063907657108,6.801433520093322,-0.19087035733745536,-0.4682816116864697,-0.3430967607071838
1.005859375,-7.46397092036239,0.856088900287378,6.2673019367625,-0.1831478900535497,-0.6353400222378005,0.09941215134788044,-6.5586902399377855,0.5802979688315186,6.810664749233987,-0.12642894453805972,-0.5293994052445622,-0.1614395317972998
1.0107421875,-7.5066506483394235,0.8751075511757205,6.224271205028183,-0.06289925320946563,-0.5141596478605729,0.22384605817168646,-6.601461838207036,0.6088700434541388,6.825644003646446,-0.0660450873370489,-0.46840503332324473,-0.1622558291824097
1.015625,-7.520588424295084,0.8797141434744192,6.186448950881936,-0.0008807500120618797,-0.45370348545397726,0.1643076371621271,-6.620612357698349,0.5897937517246548,6.802105058713322,-0.003366522354887138,-0.5285625097492092,-0.10301684042423899
1.0205078125,-7.529959374279675,0.9469901334332276,6.190695468507726,-0.12317861834703477,-0.5143981464434264,0.1617523153930769,-6.592369455596361,0.6188096143790994,6.778448512511738,-0.0035458419557131892,-0.5884579205920447,-0.16481331912921354
1.025390625,-7.5208106936873005,0.9471913654991276,6.228421727441932,-0.06285108104113052,-0.5141758900804381,0.22382391643410984,-6.539795656567473,0.6426414159250201,6.82048519610673,-0.12483665535428412,-0.5902193544698758,-0.10082631216663657
1.0302734375,-7.4918169529070795,0.9230416352765762,6.2101874537333375,-0.12086959812740916,-0.6352333721447555,0.03971745585647442,-6.554006174121022,0.6377751696827052,6.8253339165095745,-0.18502507200075607,-0.5913005792078853,-0.03822816186624168
1.03515625,-7.4723273354699336,0.8988490913125048,6.182409955517459,-0.2398675978059686,-0.5754959202153309,-0.20604532087447244,-6.611033343490472,0.6041125976258286,6.816281251191038,-0.06324629846229832,-0.7097572660890648,-0.16460038127201645
1.0400390625,-7.458574660731283,0.8798868205780459,6.2296912205613335,-0.24031795606120387,-0.4548254803367412,-0.20576648256964733,-6.587329123769378,0.6377200748906566,6.821035890579115,-0.24558950523409787,-0.712122661014024,-0.09922672018083854
1.044921875,-7.472734571595699,0.8749669656763437,6.206003594354319,-0.3029803226414214,-0.3342300808091618,-0.14580138184417535,-6.549329074454405,0.6617714132764604,6.825514642251139,-0.24807305466303128,-0.6508853840711508,-0.22106176349336762
1.0498046875,-7.487183237668981,0.8461121790303533,6.19651526217519,-0.24236698042186564,-0.15301897149282045,-0.14417390379908684,-6.592068465928709,0.6329108594522638,6.82104765070596,-0.18737595122023212,-0.7699808115320148,-0.34604438841694946
1.0546875,-7.5013505956167865,0.8652592711432556,6.1821142039627235,-0.05756378369385091,-0.15257640552412266,-0.20146322963164598,-6.592230495536345,0.6234779153986701,6.7973654223312465,-0.1903510930515798,-0.5884945067947676,-0.4054918766993592
1.0595703125,-7.530077787954846,0.9085411049287995,6.186170739006317,-0.17965576704477304,-0.2735912453791701,-0.20414673045407206,-6.5875764654173485,0.6427095159584021,6.792780829517607,-0.18825097361235563,-0.769518261692428,-0.4072535531724611
1.064453125,-7.53478543609298,0.9181253544206305,6.181356016026905,-0.11668787616476663,-0.2132157238813319,-0.32456936143640075,-6.5779663299631155,0.6474348477818949,6.806860779061117,-0.2500351342414487,-0.709814901234236,-0.4052793047454637
1.0693359375,-7.5350371576100965,0.8893611914409838,6.19087969301319,-0.11648916489507287,-0.27354826462021453,-0.3246996453534698,-6.578089729399952,0.6379697897234836,6.787895747774506,-0.18736018154301634,-0.7699865461707063,-0.34604003944330164
1.07421875,-7.525059110599416,0.889192780749997,6.162845538284577,-0.2991628902358194,-0.33446150558534116,-0.3893089885016862,-6.5826584474786145,0.6043158040424124,6.797053173274938,-0.31060910663151187,-0.8306539448814084,-0.4662642938584738
1.0791015625,-7.539715219139869,0.9181831567120606,6.190675920986725,-0.35998790200361447,-0.4553167186880376,-0.3907943040224867,-6.606548851903552,0.6043498540591034,6.783200989980378,-0.30900922016574894,-0.891438371986541,-0.4056419185633158
1.083984375,-7.5399891474236895,0.8846161655511181,6.200221153335893,-0.29967887245305075,-0.4550717761795425,-0.32870782217138794,-6.601817561442959,0.6235172266092004,6.7880507913429415,-0.2477387354445381,-0.830937626546155,-0.34523774773993227
1.0888671875,-7.51528099173079,0.8843007510399047,6.14892445613231,-0.17479093604841903,-0.575557197119758,-0.44834810212038373,-6.549699272764918,0.633376239101227,6.768619548391303,-0.3076087592527828,-1.0121572998846564,-0.40681082839192895
1.09375,-7.492083501349241,0.9039095317135839,6.224365192398338,-0.3560747575559655,-0.7572530899249917,-0.5741309885906324,-6.563685518218116,0.6187559087571434,6.796958011300451,-0.24584753658283678,-1.0718624762546642,-0.4087879959374073
1.0986328125,-7.434355255631032,0.8894146899159937,6.220625964272363,-0.4788716703167651,-0.6972798404636272,-0.5763904705481313,-6.539308482195976,0.6231011337166653,6.872181878207436,-0.3692495101297662,-0.892587486454006,-0.34304556132067987
1.103515625,-7.449122330763269,0.8558890903590246,6.234645049478555,-0.3579315068396617,-0.5158361576241661,-0.512687208564052,-6.515727119137426,0.6233239957385144,6.848296484797184,-0.31045028776318245,-0.7708299929994731,-0.404466902423679
1.1083984375,-7.487546060261343,0.8318357097567833,6.220065790286279,-0.3585896876633523,-0.3347785602653544,-0.5122546858657837,-6.535018227011639,0.6713380745431634,6.8348656345797005,-0.1287867754000225,-0.7081304739926298,-0.4692696288894516
1.11328125,-7.44406661971609,0.8317115349448634,6.206644231715211,-0.35998145780934515,-0.21405535875434328,-0.4511034035417286,-6.534499388619491,0.6182847210725595,6.876791072234487,-0.3155435271446437,-0.40831742290288275,-0.46216446288217405
1.1181640625,-7.454274248718915,0.8464204454500535,6.258099582377605,-0.2366805316077493,-0.15345331396466935,-0.509455261330353,-6.54903396538831,0.5945525867230574,6.834275335887905,-0.13070092500236935,-0.46721932863485266,-0.40569992096292107
1.123046875,-7.477923590484824,0.9088293866152862,6.248052818605353,-0.054180719593433915,-0.03220477695487576,-0.4447224177484317,-6.548895005328295,0.5992208877426279,6.8531922457074135,-0.13299713496389934,-0.34607931945728737,-0.46574091370983056
1.1279296875,-7.482786618748146,0.8462920042254934,6.229469908855754,-0.11528105601343427,-0.09268583790562725,-0.4460360042119196,-6.558953142208933,0.5900841669381046,6.782457809639582,-0.25581499182053896,-0.2869791570616962,-0.4623689482806713
1.1328125,-7.5496265113669825,0.8557563827218246,6.1908072610059195,-0.05419788965971563,-0.03213041398844646,-0.44468927424824245,-6.587080153798524,0.5609719622692075,6.820265947105472,-0.19316840301813046,-0.34713764158674487,-0.40313544437715493
1.1376953125,-7.554082437987998,0.8941047951933027,6.176468861040224,-0.11428571724194811,-0.0927138151834669,-0.5069154058076144,-6.601708637080711,0.5899399273373164,6.787713941073223,-0.1938423921494553,-0.28678482093302543,-0.4025539217775006
1.142578125,-7.5348817102431775,0.9229809887100529,6.190728805472995,-0.11172232333359584,-0.27389468707594805,-0.6291036890490103,-6.587445014281775,0.6378164169051092,6.8068842993148095,-0.31460497930587006,-0.40873566865652106,-0.4009582757951798
1.1474609375,-7.549352583083163,0.889323373882767,6.181262028656751,-0.17396901159956693,-0.2739733972846438,-0.5694083949079162,-6.592207425988725,0.6282425584326932,6.802130740886451,-0.13206807928081868,-0.346507036054122,-0.40453723160050753
1.15234375,-7.525096077049433,0.8555201773728012,6.153602081015797,-0.17261107470776,-0.394720748771223,-0.6305556055420107,-6.60190983963344,0.6044586544731081,6.768989517122124,-0.1336427972877634,-0.28569238494858057,-0.4651547160027397
1.1572265625,-7.515851122306862,0.8508657751492791,6.181955550503914,-0.23178095916800368,-0.4553731060255287,-0.7536514147221275,-6.592129080098539,0.5803392160539225,6.792215132039222,-0.25143424326161995,-0.5891199026325847,-0.4040934167218895
1.162109375,-7.473045533571267,0.84622920575076,6.2202244437450895,-0.17021628011341952,-0.2742825573313013,-0.8129230830638726,-6.572777358054497,0.5848967806476147,6.834478500923443,-0.25056757923107226,-0.5896013564042759,-0.3428852279112221
1.1669921875,-7.440084684004408,0.8320761815184468,6.272479085227186,-0.2944737923747459,-0.33485141236766935,-0.6937044025936783,-6.587197672633804,0.6328269758373636,6.835139360376316,-0.1910679543684068,-0.5281631094168256,-0.4049106677124997
1.171875,-7.416761198380842,0.78906337445684,6.315319834379308,-0.17376529142181543,-0.0930933898225332,-0.6298669220410782,-6.568293952016167,0.6329731514500253,6.820748242736217,-0.12750597154398255,-0.588811506016682,-0.2844604519627639
1.1767578125,-7.459285411749229,0.8031999880016966,6.258219140794415,0.13316675829903854,0.028394552450975802,-0.6844737058297863,-6.52031890676371,0.58490536702342,6.852688591742413,-0.12912772628556865,-0.5280436201895713,-0.345071295498457
1.181640625,-7.491690957665061,0.8604200475412901,6.177587466619432,0.1923760731530343,0.08905343300110809,-0.5613877706047308,-6.558946718833082,0.6474846813801041,6.806621252685322,-0.1299771526780514,-0.5275516644457761,-0.40629573340012626
1.1865234375,-7.520625525228562,0.9230452093223329,6.20504364223392,0.007849823788058792,0.02826743594486148,-0.5042592113384444,-6.563307268208868,0.6327929258206726,6.848991543670877,-0.12732901499268065,-0.5289410006575805,-0.22266563252367216
1.19140625,-7.511165815418891,0.9134823667012617,6.214629977466974,-0.11026974270750096,-0.15336349285398473,-0.7505848517344096,-6.56823976122219,0.6281442804063672,6.825417318357215,-0.1922711538763869,-0.3476171431539322,-0.34193647333983906
1.1962890625,-7.544556107878218,0.8989504371161183,6.185990530184623,-0.04899169896912321,-0.15316384056136387,-0.7493752140554537,-6.596923698600436,0.6281979860283233,6.806907819568502,-0.19244939388142393,-0.40747251409872687,-0.4037356616373349
1.201171875,-7.534341166275465,0.9371782488214329,6.153086760148443,-0.11352979326710744,-0.032463019057864924,-0.5676703730753172,-6.6018561916137575,0.6235493406140179,6.783333594254839,-0.1896440060999169,-0.6488261710856478,-0.40607811798090515
1.2060546875,-7.558597537825734,0.8939777761062893,6.152908559168633,-0.23312753888278454,-0.33460668475520605,-0.692500051909786,-6.573218936105048,0.6378859061085835,6.801987457444861,-0.2498428056624903,-0.6499396226992481,-0.3434791988070382
1.2109375,-7.496065437060923,0.9035448851400003,6.158530338886364,-0.35452724498430893,-0.39539485969804816,-0.7559258940336535,-6.554183221577541,0.6092194254833843,6.792024808090248,-0.18737132553870642,-0.7700021548582205,-0.34603109085017897
1.2158203125,-7.462823212126857,0.8988919050540248,6.1919531800247425,-0.41508544527098246,-0.33531502075165215,-0.8178689041787071,-6.58265899025291,0.6282353612269802,6.806728174786655,-0.06661173428981784,-0.6480490098757854,-0.3476460600689697
1.220703125,-7.448966816154621,0.851007053015539,6.220575087627979,-0.536512215004536,-0.39605680618123346,-0.8812699234913052,-6.568185027653918,0.5993958521781413,6.820411392466498,-0.19056345418721646,-0.6483902875299368,-0.46728275995525825
1.2255859375,-7.454488869302555,0.7743252166224931,6.249028568011905,-0.41560156840889306,-0.21460700143485992,-0.8175548385040056,-6.553765255848905,0.5753852141729603,6.829425534525341,-0.12860618017072717,-0.6482347033708941,-0.40745498271377
1.23046875,-7.449566398855594,0.7213306921205582,6.221157082425871,-0.23317972893942018,-0.0933341730621297,-0.7527865854067036,-6.5205136859405854,0.656824608601211,6.858127610837055,-0.06982075138709526,-0.5264944329978957,-0.4688970929882202
1.2353515625,-7.443844417565604,0.8027361475327097,6.178590529465599,-0.05243488101430997,-0.27360758854507256,-0.5061221401066766,-6.577803757581184,0.6329482346509206,6.8208680059241145,-0.13017646070356056,-0.5874172096656248,-0.46809384522476305
1.240234375,-7.511972773345305,0.8031493338017799,6.238611612835763,0.005792395290738776,-0.2128654665652446,-0.3221441658237445,-6.601376526166702,0.5944476583327996,6.830216836333239,-0.12948622589393563,-0.6477403023905238,-0.4686765075103661
1.2451171875,-7.520795732278796,0.8605556368573635,6.195929517142451,0.18712083857663275,-0.03121097410171235,-0.1963916742333082,-6.548794675439077,0.6039213027670159,6.867391958438821,-0.06684504800583849,-0.7079562687703286,-0.4094393316947108
1.25,-7.530573783905694,0.8269458319549011,6.195931524984336,0.13005278331351264,-0.1523108212681351,-0.44136900895976644,-6.563283113112658,0.5897184544855599,6.834406859202648,-0.12930295760158103,-0.5878893999543889,-0.4068735394070194
1.2548828125,-7.544171011277426,0.8795278999584292,6.1484993724002655,0.24841855024003834,-0.031025656137434805,-0.19519326945974647,-6.5869181241908885,0.570404906322801,6.843948175480185,-0.19038557265597617,-0.5885014235795195,-0.40548490969903145
1.259765625,-7.534755782242889,0.8988612355873216,6.172047892669471,0.06355948396276363,-0.2727759121100057,-0.07759479755526785,-6.611280142364147,0.5851824815090063,6.7783511886178145,-0.19212655715361945,-0.587551947801493,-0.527906101374976
1.2646484375,-7.530025927338054,0.894079814276786,6.176841060285998,0.0038761896051447866,-0.45403549421118256,-0.1400877866555695,-6.6064952038838705,0.6234405402000133,6.797545067113093,-0.18895227406614556,-0.7091648072729538,-0.40666649342764577
1.26953125,-7.549315549391415,0.884494142647408,6.1765864116151485,-0.05645636322875376,-0.45425497650621505,-0.20215761690366582,-6.596606062761016,0.5896633596935112,6.830108833272188,-0.12720049222259763,-0.768886050647776,-0.4086367089483777
1.2744140625,-7.53478543609298,0.9181253544206305,6.181356016026905,-0.11581954391868113,-0.45457865914403683,-0.3251259929437669,-6.611303211911767,0.5804178384749833,6.77358587006261,-0.25199854427462964,-0.7687367749808519,-0.589485140676706
1.279296875,-7.525821789475884,0.8654690734382158,6.214622211548359,-0.17691804872995257,-0.5150814464694938,-0.3264490251872864,-6.563429039322821,0.551569196208558,6.801001507849116,-0.2481492023725071,-0.9507171804722385,-0.46881260445108425
1.2841796875,-7.53511860483525,0.8845847663137514,6.195598420780562,-0.17646936617338915,-0.6357599812925205,-0.3267307962031337,-6.587289408049991,0.5898488465167034,6.806403084643783,-0.24794892236603122,-0.8908257856632363,-0.4070275359885704
1.2890625,-7.515814155856844,0.8845383785264748,6.191199007772694,-0.29881520615732515,-0.6964484603495097,-0.3292674439389157,-6.611055870263797,0.5754283974072377,6.801840931124117,-0.30883105642503766,-0.8315587119663815,-0.34384154099007386
1.2939453125,-7.515710367381527,0.8171139626098932,6.158620576021674,-0.36108541617990286,-0.69652073886511,-0.26956135361931866,-6.501477428638784,0.6042385707914439,6.838489959970724,-0.18530948682298853,-0.9510642789167855,-0.34778608803758365
1.298828125,-7.516058430290573,0.8317072685322234,6.191436116764429,-0.2988484623801238,-0.6964303773757616,-0.3292498374476199,-6.534754781966197,0.6376323192520094,6.853397572662389,-0.004865358404348616,-0.7078003524732401,-0.3496211839127964
1.3037109375,-7.530581230989081,0.8510127789695059,6.2052180929788845,-0.23785210464858758,-0.8772173029073426,-0.267596568604151,-6.582542556966219,0.6042194620279598,6.8112047645392435,-0.12719033731763926,-0.768894092828876,-0.4086357665135166
1.30859375,-7.520803044878724,0.8076189146468588,6.177377936516237,-0.42171925838981167,-0.8777080318746928,-0.27117378065152253,-6.606409349069243,0.5850985978941061,6.79244289828817,-0.3099081475417537,-0.8909761050157996,-0.46684953931041906
1.3134765625,-7.520321741369463,0.821842577812302,6.144433063596172,-0.5459496854097944,-0.93825013010142,-0.15195292971609184,-6.5347837321153746,0.5515476045914193,6.8147938095497285,-0.1866982863223507,-0.8303556411895093,-0.3466049979888048
1.318359375,-7.525466346725181,0.8653106551138358,6.186439177121437,-0.363032995018457,-0.937698007511597,-0.08749898809539779,-6.582348863337932,0.5801393348193046,6.825115748468035,-0.25145275652815413,-0.5891307643835889,-0.4040953351015948
1.3232421875,-7.525584827642082,0.8653634612219624,6.195833521930411,-0.1766450254511059,-1.1183514778558699,-0.2060820089679467,-6.601615273341641,0.561159385104273,6.787425212270607,-0.18895918507363646,-0.7091638688399723,-0.4066518899773001
1.328125,-7.5014393554418675,0.8075461238055187,6.168281351103881,-0.30209203463072254,-1.1184774550970056,-0.025823508022527534,-6.568207554427245,0.5707116519595503,6.805971072399577,-0.06522744852889255,-0.7687362011274247,-0.3488045827332417
1.3330078125,-7.444355374924956,0.8077766032005754,6.220843525743097,-0.30115593027757126,-1.118590631367314,-0.08671501624923947,-6.577633133500517,0.6041034644082421,6.830013671297701,-0.06313725311445045,-0.9497545216126251,-0.35057413132660725
1.337890625,-7.40173482016464,0.7502825207537417,6.25465235557152,-0.24130557977153766,-0.9976879322897768,-0.024350735360176925,-6.592283600781733,0.5804676720731925,6.773346343686815,-0.1850736212220631,-0.8911148306728625,-0.28599059288733775
1.3427734375,-7.426013465723342,0.7407810544698574,6.268414784264977,-0.18141081791177954,-0.8767551575944726,0.038009414344644804,-6.577950226565641,0.6187185335584864,6.797137656082298,-0.18558718168985724,-0.7709120286586039,-0.22361563847965804
1.34765625,-7.458930036240256,0.8415434042898713,6.243955180677874,0.062097161510951716,-0.9362981945069185,0.16439056918414757,-6.52522082130497,0.5945827647160015,6.838693125006263,-0.062068790415248994,-0.8903764099177163,-0.22755790369874845
1.3525390625,-7.46317858763583,0.8605484887658501,6.206217140141283,-0.0015008354492910961,-0.8156476936542293,0.28522584130693684,-6.539484986878201,0.5706258323327765,6.8291977682763925,-0.0007957758751310181,-0.8298586590395344,-0.16714608144976575
1.357421875,-7.468752635884018,0.8753316122499272,6.271838447866292,0.00026958158770742154,-0.5141585140511329,0.10327676208364059,-6.558458458912995,0.5801052848026136,6.838967931762596,-0.12434858759957497,-0.7104232849199994,-0.16320119084023277
1.3623046875,-7.4493074319802774,0.8415334119232646,6.244104060376184,-0.0007039394509109699,-0.5140873480086995,0.1641657469973345,-6.57286267009483,0.5993191657689539,6.829905668236649,-0.0648491936170858,-0.6489824301639094,-0.22521970095610797
1.3671875,-7.482401589389083,0.8653713016803591,6.205897825381778,0.05848316819949435,-0.4534244767470837,0.2872596032390103,-6.591928420320104,0.5897400461026986,6.8206145575020365,-0.125222736341055,-0.7099357803274784,-0.22441678178102703
1.3720703125,-7.525918130867812,0.9088265423401928,6.23791407530483,-0.0029782613097317436,-0.39324475217974697,0.28619105859722876,-6.54893200717621,0.5274943301937419,6.819450044084164,-0.1861258920474713,-0.6507128596994193,-0.1612116730720201
1.376953125,-7.530499851005658,0.8942910387092927,6.214418439521895,-0.0013853866202885225,-0.5743217451657024,0.22490238674466936,-6.577763499087501,0.5611574490923996,6.796560198477066,-0.18559740070560893,-0.7709092787548024,-0.2236036590694003
1.3818359375,-7.53520749914379,0.9038752882011238,6.209603716542483,-0.12342239551640685,-0.45404287434013724,0.16190516338732916,-6.606486609410839,0.5851628259037411,6.783008504111967,-0.12062730772897032,-0.952206207502632,-0.10433785189827456
1.38671875,-7.549596992000351,0.9134959331136251,6.209337286269249,-0.0611847141002499,-0.45393577110965283,0.10222306558707325,-6.582580644362723,0.5803320188482096,6.796812565939425,-0.1229263767199069,-0.8310814908304424,-0.1643729492085404
1.3916015625,-7.553675201862232,0.9179869208294639,6.152875222203363,-0.2436346981941025,-0.575177127144445,0.03747738461935799,-6.601337895995903,0.594415544327982,6.834934033421341,-0.0007846098134434075,-0.8298178664404361,-0.16716045794398285
1.396484375,-7.539211641622175,0.8987078134462448,6.143790418393394,-0.18025458331941266,-0.6354847100725726,-0.08321656965835657,-6.573141132989156,0.6139021209143807,6.801746850109348,-0.12152763112976508,-0.9517703790585946,-0.1655515950381501
1.4013671875,-7.544452386644633,0.8700278558120914,6.1673311727439835,-0.17867193867860184,-0.8165651231555782,-0.1445040876452341,-6.56826283076981,0.6233796373723441,6.820651999802012,-0.18172368710302003,-0.9528672342824993,-0.1029551064582255
1.40625,-7.53076633220609,0.8366571005337458,6.214677103876514,-0.3041037284710908,-0.8167065151294195,0.03574206163856017,-6.592075432078857,0.5994299021948323,6.806559209171937,-0.2429872686420057,-1.0133534239626598,-0.16336008211965178
1.4111328125,-7.483045720106921,0.8030929536478966,6.234361079526205,-0.24285559122093822,-0.8165610645475077,0.036941806313589724,-6.6016469373622915,0.5946724563665221,6.797196456716528,-0.18101323585756893,-1.0131799235736942,-0.1035378469324996
1.416015625,-7.486835242001666,0.8700207077205779,6.177618795742816,-0.3027071518310405,-0.9374875463629834,-0.025429803549126075,-6.582340811639195,0.5657811777076003,6.820254186978626,-0.24439864762671823,-0.8926800951528218,-0.1621805731480848
1.4208984375,-7.468034303299224,0.8509478285865625,6.206185811017898,-0.30389007825585995,-0.8770906004055833,0.03558915998545021,-6.553687995507308,0.5753209861633253,6.838859928701545,-0.18143040930711662,-1.1329722435875642,-0.22712513315928967
1.42578125,-7.482327454763857,0.8172110045970865,6.182627516988193,-0.36613641847092493,-0.8771668050691298,0.0952855484979458,-6.563321743283457,0.5897505684903774,6.829689662114546,-0.05856735639121328,-1.1920490624146887,-0.23049285014281604
1.4306640625,-7.530699644664252,0.8125637504650778,6.200693363477477,-0.24262185348607754,-0.8768684013631882,0.03680944047197446,-6.577509191289385,0.5896489652820854,6.8393037010725966,0.0027001588167354334,-1.1315349229632352,-0.17008789927532122
1.435546875,-7.510891752651611,0.8700456886370946,6.177246596497042,-0.18393967598023908,-0.936867949998773,0.22048306672027335,-6.582218497750947,0.6230853501351471,6.85856922128867,-0.17983836315704965,-1.193760003691575,-0.1665167164125968
1.4404296875,-7.5160955312240505,0.8750383343801371,6.210030808116412,-0.1858347566134211,-0.9367383902798316,0.34223679239099114,-6.5915260152146455,0.5607025918311151,6.858063405404233,-0.2418165633596589,-1.1939159692578631,-0.22632677874334584
1.4453125,-7.544600521411624,0.8893447807535272,6.186033640910392,-0.24403429923808512,-0.9974304483507237,0.15826597737835202,-6.572784866978939,0.5753353805747511,6.829665060901136,-0.29989453889256534,-1.3760368911205716,-0.16548337032147534
1.4501953125,-7.4964282596532845,0.8892684158664304,6.182080866997454,-0.18108323050949637,-0.9370855614350055,0.03783836392584796,-6.573032751401202,0.6042443788270645,6.811085001351346,-0.11893320063383882,-1.2530088724471877,-0.22969261085715
1.455078125,-7.520455183694867,0.9085311125621928,6.186319618704627,-0.1796830535450772,-1.0578260036259575,-0.02332156705062073,-6.587383314563356,0.6425489459343147,6.816366814958115,-0.1814012573092739,-1.132949455643355,-0.22714155961662258
1.4599609375,-7.497227904979771,0.8318721051774535,6.224614082992457,-0.42295722229856586,-1.0586282578995807,-0.14984948915251708,-6.5444808079328265,0.6330033294429693,6.825166031854574,-0.1171584384568271,-1.2539569036072107,-0.10727454807176794
1.46484375,-7.424850997804494,0.8124538344324043,6.202331040158884,-0.36571749487105254,-0.9978869757703114,0.09499844655388176,-6.563190834922177,0.6087770266216522,6.853468133423465,-0.24339889575835574,-1.1331346415519632,-0.2869565711442121
1.4697265625,-7.377856098131777,0.7888385836119699,6.283035146341137,-0.2443514776816784,-0.9371798310234472,0.15840541295065302,-6.544426074364554,0.6042549012147433,6.820160105963857,-0.1802126302015653,-1.3135352978707462,-0.2900973843583136
1.474609375,-7.4210024371764876,0.8610051811433237,6.296133374468932,-0.18177107740895185,-0.7561228825751668,0.03824478263436086,-6.525398954310079,0.6138661348858162,6.824734019610369,-0.24269082962842645,-1.1934974202384765,-0.2875355429832745
1.4794921875,-7.464037540662497,0.8416804157434913,6.267366602851155,-0.12209448265652201,-0.5748262341987744,0.10075355038334076,-6.57276930635576,0.5705386235359104,6.829616939434033,-0.24409040473721663,-1.07278311894009,-0.2863613267705711
1.484375,-7.488205085145955,0.8176912557535301,6.267102180419805,-0.12400297254137517,-0.5746686293510365,0.22252240900091194,-6.558581858349831,0.5706402267442023,6.820002900475985,-0.36853083802882497,-0.9529051518403611,-0.34361843310631407
1.4892578125,-7.487538680419684,0.8462705973547334,6.224698296602112,-0.12368590211320951,-0.39371575773054734,0.162054994291991,-6.539393251462014,0.6136039616534367,6.8579340440089265,-0.3042896924544067,-1.0739024517685392,-0.22376865150648037
1.494140625,-7.496702255178834,0.8942032593180427,6.205545173657004,-0.12438529856239834,-0.4539964391563634,0.2227813455252216,-6.563251991866301,0.5801249404078789,6.834310616268443,-0.3058688351539643,-1.013078754823809,-0.2843871366474882
1.4990234375,-7.515680848014897,0.8748535130016937,6.177150601285002,-0.0633302999691021,-0.393463660703779,0.22412950976647927,-6.539655610958867,0.599470602575455,6.820052102902806,-0.3062463289861824,-1.1328491439754012,-0.40798019814427255
1.50390625,-7.520884626587336,0.8798461587447359,6.209934812904372,-0.060777588609235864,-0.5746242345189086,0.10195149015489974,-6.582465296624622,0.6041552340183248,6.820639158715447,-0.18230187074480564,-1.1324889290758526,-0.2883440314612104
1.5087890625,-7.5107954785014135,0.8651900543476724,6.1678738070509525,-0.18291252808112676,-0.6956356665094522,0.09928489257280518,-6.572590630576356,0.5273356961815279,6.833901043318211,-0.24060885361024117,-1.3744819749626425,-0.28928421070653487
1.513671875,-7.496472673186689,0.8796627595038391,6.182123977723224,-0.1829067450436663,-0.6956523553371314,0.0992767645263928,-6.544295708777571,0.647200916530586,6.853613578784492,-0.3028839111321867,-1.1945802868413253,-0.22494841468269483
1.5185546875,-7.501550523758841,0.8605356521241501,6.19622727653907,-0.1827011236081184,-0.755985935217,0.09914365860684018,-6.56860245060826,0.6093105063039974,6.773335664519688,-0.24386272785945104,-1.0129033514995398,-0.22456603378252218
1.5234375,-7.510595617601089,0.9084155079793327,6.167679808784988,-0.24446276529934255,-0.8767738025982962,0.15853414215589823,-6.558698291636522,0.5946561259432228,6.815526310723396,-0.3005843026573386,-1.3157057184602843,-0.16489761646023512
1.5283203125,-7.486583520484549,0.8987848707002248,6.168095118756533,-0.18056382548726746,-0.8164780268019513,-0.02276548297868472,-6.553850025114944,0.5658880421097316,6.8151777003268315,-0.1777359497353272,-1.3747915280149234,-0.1682552315394634
1.533203125,-7.486909309385161,0.8796791701912958,6.18697002982602,-0.24185594306456323,-0.8166429144052358,-0.023957979168347503,-6.525459568479908,0.561294491487475,6.795901500943629,-0.17703302733280357,-1.4351485343084571,-0.1688345183416754
1.5380859375,-7.453504190000789,0.8845790403597847,6.210955415429655,-0.3029228343104143,-0.8771791775184078,-0.025303208753442212,-6.548918074875915,0.5944562447086049,6.848426927152209,-0.3004105044546793,-1.2558391029557612,-0.10310258123565404
1.54296875,-7.43971448157039,0.8607875383899668,6.253561063431928,-0.24187945644264702,-0.8166788698638371,-0.023964123556608156,-6.5396019629391855,0.6185612887163647,6.834396180035521,-0.1796411780163892,-1.1339086762514325,-0.10471024259280322
1.5478515625,-7.4923499825496735,0.8462755935380368,6.224623856752958,-0.36495114490839203,-0.9375857342739621,0.034256423989688395,-6.520380063707833,0.5562532808096466,6.833531074587391,-0.11966015337279697,-1.1927056104024267,-0.2290911547333611
1.552734375,-7.4784120721105545,0.7646653320142286,6.23460796227844,-0.36449074213451843,-0.8169542251762454,-0.026319579623161154,-6.558434846591079,0.5609503706520688,6.834058248806084,-0.055903697018567955,-1.1934393267760055,-0.04685462294145092
1.5576171875,-7.487464613036189,0.8366121348840156,6.215347062518908,-0.24473125590957398,-0.8164321812699128,0.15868994113873938,-6.5775478214601835,0.5896810792869029,6.834586503984495,-0.23843115621722125,-1.2556518923735898,-0.04328261916086954
1.5625,-7.525503380416929,0.8701398863491947,6.191114794163039,-0.30524918369587717,-0.7563092135844707,0.09674966328163681,-6.553525965899672,0.5847539302169189,6.862542157076258,-0.11877400409474834,-1.1931503528339602,-0.16789409090511132
1.5673828125,-7.530536817455675,0.8606184353320969,6.205174982253115,-0.18204422887633492,-0.9369913039026274,0.09872991920469643,-6.5297128218163305,0.5847841082098629,6.866959946194616,-0.05820813279182077,-1.0723217241354035,-0.10689690414176664
1.572265625,-7.530329509471963,0.8797769419491526,6.195694415992601,-0.24309438094644337,-0.9975050654849251,0.09738764916005262,-6.572653958617659,0.5943618387060259,6.853443532210054,-0.12066722751097524,-0.9522388260689376,-0.10434209788931992
1.5771484375,-7.472756778362402,0.8701641374950481,6.206025149717203,-0.3022766206003886,-1.0581832766470511,-0.02571253995026959,-6.56798382510119,0.5848771250423496,6.839135816417596,-0.17786397939456094,-1.1348132141777556,0.01771350855978488
1.58203125,-7.482823652439895,0.8511212354608525,6.234145525897356,-0.36334992795638155,-1.1186844007211665,-0.0270434356612699,-6.548817744986698,0.5991566597329929,6.862626639883617,-0.2403510844921752,-1.014778031337614,0.02027247169008869
1.5869140625,-7.458907829473553,0.8463462324711668,6.243933625314989,-0.36598840531243987,-1.1788396311989844,0.15545026136880574,-6.549057577710226,0.6137075008736022,6.839185018844417,-0.23893967128793278,-1.1354557575885307,0.019099267386800085
1.591796875,-7.415643076753669,0.812628663444241,6.235360126688604,-0.3671035680087164,-0.8771505390974906,0.15615128875079962,-6.539609471863628,0.6089998886435012,6.829582740013214,-0.23982772472418626,-1.1349982593526804,-0.04210809670106822
1.5966796875,-7.430506493277836,0.8224605327892489,6.272671075651266,-0.3041347620877096,-0.8167763665268215,0.03572686259070499,-6.55392837100513,0.6137913844885023,6.825093309174061,-0.24001458819050525,-1.1948655290198609,-0.10390763592628433
1.6015625,-7.4444886827669015,0.8174614687253566,6.23489193223079,-0.2440205768805113,-0.756182950263296,0.09794877858726764,-6.544201259489911,0.5705812599284068,6.8339748469584425,-0.24161754249985343,-1.13406860273988,-0.1645226140004906
1.6064453125,-7.478167797676824,0.81749644200848,6.2343708532867055,-0.24496285540461607,-0.7560943802625624,0.15883255427774506,-6.554036209818789,0.5995295693912507,6.806080156420347,-0.24019969715823758,-1.25473985316596,-0.16569971471745906
1.611328125,-7.511669258453126,0.855954040741968,6.233677331439542,-0.12090858592655862,-0.63520219794292,0.03974101603866449,-6.549127329127381,0.6233331289561008,6.834564064690521,-0.2974124417739495,-1.4373213930606539,-0.04365532616890244
1.6162109375,-7.492105640874215,0.8606048689197335,6.210467673450841,-0.06101264242384086,-0.514295428201249,0.10209258658289731,-6.529937636690975,0.6184577494961994,6.853145205200029,-0.30269886627524767,-1.1347112549725245,-0.16314341404640126
1.62109375,-7.4824756567725785,0.875029764151077,6.215249059464983,-0.06290391915982553,-0.5141733967678352,0.22384306791152483,-6.539725362376023,0.6090962306579537,6.8154311487489085,-0.1807160778091968,-1.193320646403302,-0.2277139935717484
1.6259765625,-7.483053234432038,0.8656617352750559,6.257566721831136,-0.06079565543274407,-0.574652325449071,0.1019466922748282,-6.568099172839291,0.5610539098722342,6.815309223641575,-0.11805338083457395,-1.2534732830267945,-0.1684727366103851
1.630859375,-7.50648030680573,0.8605934544155802,6.205547181498889,-0.3669732231807215,-0.6358074216046511,0.09582967058301194,-6.534830956759205,0.5898574328925087,6.824613175462753,-0.17983443940055185,-1.1937868191845291,-0.16649958073606103
1.6357421875,-7.516421320124664,0.8559326338712081,6.2289057191859,-0.2441986636283183,-0.6958082747074535,0.09808665605692161,-6.549405249247412,0.6139965269169597,6.796730245051503,-0.24178195616164208,-1.193939937710094,-0.22632547801700204
1.640625,-7.487286891660838,0.8365329257218256,6.201255545305446,-0.24494799092018918,-0.7560889419090874,0.15883019338698226,-6.553836092814649,0.6328499566245946,6.844154583394878,-0.11894804246208299,-1.2530276560425109,-0.22969914739073194
1.6455078125,-7.511180507860476,0.8461107568928067,6.191445890524928,-0.18249103521485446,-0.8163147344225689,0.09901115522725762,-6.534544442166141,0.5609163206353778,6.847910432100645,-0.18074238788739783,-1.193325943121596,-0.22770661488519842
1.650390625,-7.540055767723797,0.8702076810072314,6.200285819424548,-0.1824702732027266,-0.8163061211946894,0.09900688650504941,-6.539453865631844,0.5610323182550955,6.829101525342187,-0.2402208635090329,-1.2547509222772333,-0.16569202106775952
1.6552734375,-7.516362012424483,0.81740439620459,6.210289472471032,-0.24430318936033243,-0.9370877349678973,0.1584228563453097,-6.568037473120872,0.5657864389014398,6.824791739284881,-0.11945406975868314,-1.1327946241853701,-0.16730211547343868
1.66015625,-7.4970798374545105,0.8510570148485724,6.21983068913643,-0.4281248577433182,-0.9376176156045266,0.1548156285958778,-6.568036930346577,0.541866881716872,6.815116737773164,-0.24040494916650354,-1.3146059929957972,-0.22748768621863966
1.6650390625,-7.468182438066215,0.8702647535279981,6.224888279184307,-0.4290678938716381,-0.9375765465161339,0.21568296554856758,-6.515377819277355,0.5512762981414534,6.8617262540549495,-0.18005595419688286,-1.2536804882226473,-0.2282895648854321
1.669921875,-7.473045533571267,0.84622920575076,6.2202244437450895,-0.36400581157674017,-0.9376642175305623,-0.026624755005664375,-6.553540983748555,0.5656311300711916,6.852915277031643,-0.2414344018011193,-1.0741868150667624,-0.10272791362381549
1.6748046875,-7.4826311041394975,0.8414099668820079,6.215399947005177,-0.30419130460273935,-1.0580349498184585,0.09605495777182764,-6.572785409753233,0.5992549377593189,6.8393400624128535,-0.2414182466278766,-1.0741734761673687,-0.10273623474522661
1.6796875,-7.444081446641135,0.8413435943615178,6.21129829339393,-0.36715977404086125,-1.1184336757452455,0.21646990937732077,-6.534638348679506,0.613616420052989,6.857874162414977,-0.18143623002451953,-1.1329896362750795,-0.22713225629083753
1.6845703125,-7.487212891519071,0.8653762978636624,6.205823385532623,-0.4899119289237583,-1.0584088166005974,0.21421324603148226,-6.539757026396675,0.6426093019202026,6.8252023931948305,-0.059065164291556595,-1.071849796318582,-0.1681166990956278
1.689453125,-7.48761268056145,0.8174272252128966,6.2201304563749344,-0.3683325249316143,-1.0579916550504687,0.2775016042507328,-6.549236253489629,0.6569104282279847,6.834900914960239,0.0025178946376780216,-1.1914346327087493,-0.23189424421434812
1.6943359375,-7.478278898752068,0.8319841357145569,6.248397704411512,-0.24671612537533338,-1.057604537540924,0.34076657249061215,-6.492184386249675,0.623578971765181,6.819693894298831,-0.05945794460260649,-1.1916359522487576,-0.29169928542104995
1.69921875,-7.478071590768356,0.8511426423316125,6.238917138150997,-0.3037526515754364,-1.1787269650259404,0.09577087291735405,-6.515634840946945,0.6423825678746066,6.867357759018001,-0.1240449161932711,-0.8905544383680107,-0.2873910034041412
1.7041015625,-7.473445389855375,0.8367819677125491,6.248450588897781,-0.4272711894622876,-1.1789960495081115,0.1542578902749664,-6.544232923510561,0.6040943311906558,6.843746091404364,-0.18549776629289574,-1.0109129115648001,-0.40958968361264186
1.708984375,-7.454044666726771,0.8318799456358501,6.234678386443825,-0.36686655500039245,-0.9374731777068726,0.1560116802592404,-6.539523074274705,0.5467383891530263,6.814805569676574,-0.24498302037216868,-1.0723404548923152,-0.3475607988534194
1.7138671875,-7.434547669447968,0.8221222892697287,6.211533394543779,-0.30537929648993456,-0.9976506607138775,0.15707201103035884,-6.472715145370354,0.5562815227907172,6.847083849912208,-0.12196196595305207,-1.0715974901199332,-0.28912382144968446
1.71875,-7.4397736547871105,0.8223121068314755,6.2443391615260335,-0.30654534777549863,-0.9372457062943162,0.21808792725509277,-6.5488102360622555,0.6087180598058566,6.867440079905924,-0.0599822835488619,-1.0713846098380582,-0.22932598647237645
1.7236328125,-7.430469459586087,0.8176313015538901,6.267995458609663,-0.3670984180439374,-0.8771487777137925,0.15614936653206937,-6.510661546665645,0.5513208705458232,6.8569491753728995,-0.18443653103018628,-0.9515202600655731,-0.2865676845197312
1.728515625,-7.4253249214720976,0.812665058864911,6.23990841939478,-0.24709212474578413,-0.695652794073906,0.2807219001297126,-6.534584157885529,0.608787549009331,6.862543238035976,-0.2475980742379795,-0.7711151525955161,-0.2834357182665045
1.7333984375,-7.425184233788494,0.8174150809380799,6.2304925192229215,-0.12358061304175573,-0.695383505632465,0.22223733998411677,-6.558202522791993,0.5368381294385959,6.852686429822977,-0.24830070514653288,-0.7107540547595729,-0.28283695320083524
1.73828125,-7.425399056097324,0.8608253559481835,6.263178727788367,-0.003544615437519601,-0.5139117345677958,0.3467898693727284,-6.5393615874413635,0.5800908903911878,6.848162799563004,-0.1229596804853905,-0.8311177323383883,-0.16437194711941003
1.7431640625,-7.4585079731894455,0.8557934705093779,6.215707480162297,-0.003756704444319021,-0.4535394180492786,0.34693948352189347,-6.54393193384291,0.6181955762638199,6.886345229598587,-0.12456063663447714,-0.7703185798670493,-0.22500877329251387
1.748046875,-7.477612494025797,0.8605634773157602,6.205993820593818,-0.06532697758501296,-0.6346503971044991,0.40620524327973984,-6.5440708939029255,0.6135272752442494,6.867428319779077,-0.12455173096372396,-0.7703158850749213,-0.22500589504777854
1.7529296875,-7.482623724297841,0.855844854479958,6.22003245332101,-0.06554645239356276,-0.5743074410731285,0.4063456513435169,-6.534459130125808,0.5464939355140386,6.852483264787438,-0.18544338706968666,-0.7110679719396402,-0.16180317851355594
1.7578125,-7.458448799972724,0.8942689020678694,6.224929382068192,-0.12599398429183423,-0.2729352662475515,0.2840699761610674,-6.529595845755345,0.5368486518262747,6.861761534435487,-0.12278378928914585,-0.7712465887725364,-0.10256604737658846
1.7626953125,-7.482372002780723,0.8846090174596047,6.210508776334726,-0.002269445403963435,-0.33298552544926235,0.22545514454054638,-6.510948061258708,0.5802619828029542,6.833651918735007,-0.06130181708294194,-0.6508750173499154,0.019635432887976603
1.767578125,-7.502054101276534,0.880010995389966,6.243112779132401,-0.06194853787909731,-0.5142346993700423,0.1629636865385377,-6.539447442255992,0.6184328326970947,6.8532649683879265,-0.12257068418368557,-0.7113652275049045,-0.040786496174479214
1.7724609375,-7.482520070305984,0.8654241077884858,6.215292170190753,-0.123240390381162,-0.5144052144794237,0.1617702617905518,-6.520311397839267,0.5944667670962837,6.857502031764721,-0.06487259046755223,-0.6490219073637761,-0.22521397908085325
1.77734375,-7.487553574586459,0.8944044913839427,6.243271432591211,-0.18471861052724023,-0.45424439384336945,0.1607009319638375,-6.534791783814111,0.5659057617031233,6.819655371039138,-0.06396538595052988,-0.6494683639591722,-0.16399561287792608
1.7822265625,-7.482734825373083,0.8703325481860348,6.234059304445816,-0.18335117272990695,-0.574986038453667,0.09955203686051535,-6.544023669259096,0.5752174469431599,6.857608953866054,-0.12416904207480528,-0.6505578644779271,-0.10140306158542706
1.787109375,-7.496968736379266,0.8365693211424957,6.205803838011623,-0.24486534428740345,-0.5147876571415815,0.0985093801273764,-6.543992548012739,0.5656239328654787,6.857512710931848,-0.1257597185943463,-0.5897547625993405,-0.162025459219929
1.7919921875,-7.4779160761597065,0.8462606049881268,6.224847176300422,-0.3046791352130477,-0.39442724201381696,-0.024174515548073157,-6.5347231179455445,0.6041192479897604,6.843626328216467,-0.18403162754517988,-0.8317496098435164,-0.16298677734494824
1.796875,-7.472897466046006,0.8654141154218791,6.215441049889063,-0.24295406314350604,-0.5149485762594567,-0.02326180866124695,-6.5297434002883925,0.5704580651029761,6.857381187617105,-0.18493626802376517,-0.8312905452514032,-0.22419118745399774
1.8017578125,-7.501335835933471,0.8941290463391559,6.191379216594389,-0.3039919429955882,-0.57544461698518,-0.024601721705409783,-6.539283784325471,0.5561071051969849,6.84792219222749,-0.06258434408707199,-0.7701484514626928,-0.16516968142740482
1.806640625,-7.510891752651611,0.8700456886370946,6.177246596497042,-0.3652843125533656,-0.5755958467014678,-0.025788575835246446,-6.553510405276493,0.5799571731780784,6.8624940356091555,-0.002205652679464473,-0.70917349105998,-0.16598086587456984
1.8115234375,-7.449351912755413,0.8704295901732281,6.258066245412335,-0.30475151190411276,-0.6357557631851316,0.036132400564329765,-6.5343604285594745,0.6229530220921302,6.895707982053995,-0.18545171553999917,-0.7110771861533671,-0.1618233809717974
1.81640625,-7.487257305052477,0.8557706415010713,6.205866496258393,-0.2429569389049535,-0.5149343665201981,-0.023255645995419523,-6.50109863585524,0.5943560306704053,6.880848490829433,-0.12488263455913406,-0.5902512637618501,-0.10081695299152446
1.8212890625,-7.463297068552731,0.8606012948739767,6.215611484950257,-0.3059197943104215,-0.575327990336422,0.09715884255321194,-6.520582351809152,0.6186111223145739,6.834156653659726,-0.001804614424361331,-0.5894395854913739,-0.04238732456929865
1.826171875,-7.391712494104014,0.8367234356504556,6.254413238737901,-0.3681792289035871,-0.5754738495501917,0.15683389618145385,-6.548972265669891,0.599285115752263,6.843757851531211,-0.003589870001329976,-0.5884950946904983,-0.16480973387374098
1.8310546875,-7.411579693816834,0.8177697351450568,6.296476252433205,-0.3054447822221012,-0.45474683105119745,0.03655861061665946,-6.539446899481696,0.594513275512527,6.843589966876211,-0.002195497774506106,-0.70918153324108,-0.16597992343970872
1.8359375,-7.47343063017206,0.8656517429084492,6.257715601529446,-0.24433840912138843,-0.39420764224179067,0.037891791891175,-6.5299837757862145,0.6089284634281533,6.843614568089621,-0.12435023161430626,-0.7104449169575242,-0.16320353588174172
1.8408203125,-7.49215012164935,0.8895010471696972,6.224429858486993,-0.18420522057640926,-0.33362184074606877,0.10010448352478295,-6.549142346976264,0.6042103288103735,6.824937184645907,-0.0655478288330823,-0.5886583497368288,-0.22463052067132463
1.845703125,-7.506791336023028,0.8703575291025515,6.233687105200041,-0.18464877311473782,-0.21292621628891448,0.1003907039626604,-6.52535172966625,0.5755563065847267,6.814914653697344,-0.24897774214264493,-0.6504338104768753,-0.28225009942315915
1.8505859375,-7.458937483323644,0.8656103513044758,6.253241748672424,-0.18474285990022474,-0.4542547038914098,0.16070534211429485,-6.520125755909717,0.5847447969993325,6.8762745771829215,-0.1259619761543194,-0.6496519893539915,-0.2238248570433845
1.85546875,-7.458426593206021,0.899071730249165,6.224907826705307,-0.24431937274231386,-0.3942225548791239,0.03788090938896293,-6.543876657500344,0.5655275908510262,6.871664302196153,-0.06507373421220639,-0.7088834916614651,-0.28700978182855175
1.8603515625,-7.4588338293317875,0.8751896046130038,6.248501465542167,-0.24148766218570292,-0.39441946031946545,-0.1447486153516134,-6.510840222445049,0.5945237979002058,6.852665071488721,-0.1870274397474405,-0.6502839871959006,-0.222434126680185
1.865234375,-7.445007087209641,0.8465688714078269,6.286431496502837,-0.3659670609491516,-0.39462780885833904,-0.025381904989945792,-6.511010303751421,0.5994490109583164,6.8338444046034175,-0.24689040575760937,-0.8314674234674514,-0.2840137525798809
1.8701171875,-7.449892456723125,0.8562323300618482,6.295708290736887,-0.24353742573076384,-0.09265675211794766,-0.08317299153510124,-6.49671447415754,0.5898928720792921,6.833568516887365,-0.2461959350907522,-0.8918168458971854,-0.2845959783853303
1.875,-7.48295696028184,0.8608061009856336,6.248193932385047,-0.3037760062694161,0.14843238948743154,-0.20556368014979898,-6.515479234715161,0.594414997486201,6.866876544346974,-0.24601697109468962,-0.831930818874058,-0.2228060560986941
1.8798828125,-7.501987413734697,0.855917645321298,6.229129038733364,-0.30355756404556355,0.08810897572188107,-0.20569680240177737,-6.534267064820404,0.5941724798590868,6.895419253251379,-0.18615515598840282,-0.6507357507930597,-0.16123111156596445
1.884765625,-7.497190938529753,0.8655447085546492,6.233857540261236,-0.36513005992847936,-0.09302157205588779,-0.14643745744654615,-6.543961426766383,0.5560304187877977,6.857416467997643,-0.18563499661385222,-0.7709399770284187,-0.2236039702276076
1.8896484375,-7.492024193649061,0.8653812940469658,6.205748945683468,-0.2416220870464172,-0.09275038283501602,-0.20491970180837474,-6.510615407570405,0.5608501566138693,6.866479812483307,-0.18533034889831518,-0.9510593680467327,-0.3477812949719633
1.89453125,-7.506369272972217,0.8846075953220581,6.205439404684464,-0.17989332862337518,-0.2132610520275324,-0.20400474862960608,-6.496544935625462,0.6088872162057494,6.862064185284386,-0.1881148746044955,-0.7097106219298647,-0.3454436316940134
1.8994140625,-7.4919205396572055,0.8749605473554937,6.201008662553212,-0.1820175524487117,-0.1527914807356269,-0.08210712086083294,-6.491812559616279,0.5802154743867108,6.847563983623516,-0.12633712900301097,-0.7694226569334336,-0.3474108313731917
1.904296875,-7.496724394703807,0.8508985965241924,6.191647654709508,-0.18349556256402255,-0.27332600857236455,0.03938117571111283,-6.534528881542963,0.5561195635965372,6.847862310633542,-0.18791886034651528,-0.6498025871344049,-0.283639773198256
1.9091796875,-7.501935553117904,0.8414563546692845,6.219799360013045,-0.18182013731221816,-0.21311788022295985,-0.08223504583228011,-6.534691453924894,0.5706061767275113,6.833855083770545,-0.18969027247047054,-0.6488762590794876,-0.4060627058875746
1.9140625,-7.468078716832629,0.8413421722239712,6.2062289217436675,-0.1799283750350862,-0.21327092770030492,-0.20399629506429934,-6.491572726892751,0.5656646332461015,6.871005604662717,-0.18901877893852295,-0.7092504826120819,-0.4066455752445498
1.9189453125,-7.477849455859599,0.8606690895320136,6.224782510211767,-0.1200993316810206,-0.3336540554303046,-0.08132640918973195,-6.500967184719667,0.5894629316171123,6.894951960626635,-0.12546773849290976,-0.7698853155948896,-0.2862082254906058
1.923828125,-7.453667084451095,0.8750261901053203,6.220392870964399,-0.2426541644443924,-0.3340098162458696,-0.08372944478724494,-6.515579021830084,0.565795025277245,6.843001830103851,-0.06665238588811412,-0.6480967903272169,-0.3476272414368525
1.9287109375,-7.477790215401149,0.8606426864779502,6.220085337807279,-0.365651623137071,-0.2136442426301822,-0.08583748619864344,-6.539485529652495,0.5945453895173445,6.838872769788109,-0.12810379009288714,-0.7684642108247948,-0.4698410918089083
1.93359375,-7.4782419323020495,0.8656567390917526,6.257641161680291,-0.3628021208734762,-0.21385351705589914,-0.268477708851328,-6.524733104159178,0.5511229253230788,6.880714805595253,-0.12565594952375722,-0.8297427431250619,-0.34799921172910725
1.9384765625,-7.458322939214166,0.9086509835576927,6.22016754357505,-0.5468336655623326,-0.15403759987309742,-0.2719453319994824,-6.529875394198261,0.5992707213408371,6.852952719331618,-0.12702874064046157,-0.7090579419983241,-0.34683450100438595
1.943359375,-7.453733771992933,0.8991195401739883,6.234376611363436,-0.42354986648047377,-0.09342990565858775,-0.3302885004184383,-6.539346026818185,0.5752941333523471,6.848114678095901,-0.18721640403261075,-0.7101402907312031,-0.2842307318113388
1.9482421875,-7.449477773513972,0.8560475086834047,6.262828083905478,-0.4852924782765178,0.027090139685430458,-0.33119615145298253,-6.539229593531495,0.5512782341533269,6.8525912678484895,-0.06436891980501029,-0.7692236724066529,-0.28759050094051813
1.953125,-7.477797662484536,0.8847096334925548,6.2293719058018295,-0.48431851311656854,0.027037642620291995,-0.39207730556404735,-6.56816946703074,0.5945990951393008,6.820363270999396,-0.06573652801854638,-0.6485216584818498,-0.2864277508196024
1.9580078125,-7.506317412355424,0.8701463046700447,6.1961097259641456,-0.4824226218913336,0.026932957693732388,-0.5138226222769953,-6.548933635499093,0.5992530017474454,6.848475048619312,-0.06645151939669842,-0.5881986194671462,-0.28584254624140276
1.962890625,-7.5066506483394235,0.8751075511757205,6.224271205028183,-0.7273214529886193,-0.03408692113189281,-0.5187553270398191,-6.525004600903356,0.599186837725937,6.867044429001974,-0.12544780426655472,-0.7698657082309277,-0.28621083099629197
1.9677734375,-7.492127847640917,0.855802040738438,6.210489228813726,-0.7287194387253823,0.08666135913076982,-0.4575931785459778,-6.491743350973418,0.59450940348878,6.861859939289129,-0.12614958072142896,-0.7095477163789652,-0.2856182825918801
1.97265625,-7.454015080118411,0.8511176614150958,6.239289337396772,-0.6655531631533159,0.08666747757377964,-0.5781594148820373,-6.515331680182115,0.5608055842094994,6.871256891165358,-0.12914246049899056,-0.5280482134760075,-0.34506749826243743
1.9775390625,-7.410920736173951,0.8704160237608648,6.263358936610062,-0.7875946175338778,0.20690721095424808,-0.6411694678446077,-6.524996006430326,0.5609091234296649,6.852507866000848,-0.1286252457026713,-0.6482567386140455,-0.40745022315813284
1.982421875,-7.4543927968775465,0.884975086170735,6.281413001496961,-0.9080209615602973,0.14611574832884988,-0.7654602055421158,-6.539285412648356,0.6278657767506883,6.87694719676264,-0.06665479531070051,-0.6480877170172091,-0.34764693794038654
1.9873046875,-7.511262022327359,0.8798361663781292,6.210083692602682,-0.9676088614312077,0.20620557147988583,-0.8882596228136709,-6.520381149256423,0.6040923951787822,6.8528810776108235,-0.126452392717821,-0.5294322862828109,-0.1614432669244627
1.9921875,-7.506302652672108,0.899016079865945,6.205374738595809,-1.1499722075704544,0.32623988125876713,-1.0133375425888937,-6.5155640039812015,0.5849178254229723,6.852628710148465,-0.2503936534347926,-0.5297656261367358,-0.28108192495996936
1.9970703125,-7.511417604177738,0.9232200383341695,6.2380727287636395,-1.1487907048638257,0.2658211824699329,-1.0743650808943184,-6.534359343010886,0.5751139077229944,6.876357979030562,-0.12913946891973085,-0.5280364235754909,-0.3450737062076431
2.001953125,-7.492127914882647,0.8943038753509928,6.224408303124108,-1.3307528245664875,0.2651828824855213,-1.1997068128457695,-6.543884166424785,0.5559661907781627,6.8668508621738455,-0.007173019506070553,-0.5866490551391847,-0.40964510910543467
2.0068359375,-7.4676643025903955,0.9951646892957468,6.229025012153786,-1.6961755535183036,0.4449446233546452,-1.3891473763077036,-6.544177647167996,0.5514263457778622,6.82906516400193,-0.1266382798749068,-0.5892877935202937,-0.2232303183301261
2.01171875,-7.5110474017437205,0.9519313952056897,6.219154706968382,-1.9343701196670384,0.624802690825666,-1.8805263729278192,-6.491503518249891,0.5799585623481708,6.885301560328329,-0.005405143401519047,-0.5876138407799728,-0.2872230891478707
2.0166015625,-7.469241251993207,0.808171226873979,6.286231740160143,-1.8729746156667715,0.5646399494830779,-1.8794318764933742,-6.520280276592911,0.5848732530186025,6.8574057888305155,-0.00608367266554489,-0.5272506704027448,-0.28663910244429075
2.021484375,-7.492283362249566,0.8606840780819236,6.224559190664302,-1.7529253531528999,0.7461405556393604,-1.7548715326345592,-6.491881768259139,0.5659215452846416,6.833268027957904,-0.004682534762581586,-0.6479464332203653,-0.2878012041045056
2.0263671875,-7.5302554420884675,0.8701184794784348,6.186343181909397,-1.6883494080894106,0.6254543259193968,-1.9365824438495511,-6.544108981299431,0.5896398320644991,6.853036121179259,-0.005186144183363425,-0.5276964990748594,-0.22543238571289037
2.03125,-7.558960293176365,0.8411994722201644,6.162540012969342,-1.8724168542553044,0.6853232346990052,-1.9400197128351484,-6.5154947953383395,0.5992117545250415,6.866924665814077,-0.005003761695184695,-0.4678409700389956,-0.16363472399363396
2.0361328125,-7.496798529329032,0.8990588936074649,6.214917963103094,-1.8705771177371466,0.44382431243140025,-2.001487803618859,-6.491813102390573,0.6041350315712786,6.8572389851352336,0.11746793186948958,-0.646695199183338,-0.2905895511879739
2.041015625,-7.468463813433423,0.8607647093816603,6.243720079528025,-1.9356839809099475,0.44391375905370895,-1.7591648191865277,-6.510725417481243,0.6422665702548889,6.886166665776458,0.17536296336430823,-0.5244542753213084,-0.41324089434020034
2.0458984375,-7.521180694396129,0.8029745047899433,6.205582526306044,-1.9998355241683807,0.44400691634546635,-1.5776962457804016,-6.534730626869987,0.5945578479168968,6.838812888194161,-0.0085496708964455,-0.4659736160337738,-0.40847634448545866
2.05078125,-7.521395382221499,0.7693811105749375,6.210430586250726,-1.8735819432087848,0.20278994918916723,-1.7584828629097091,-6.563212818921208,0.5561732692184935,6.829352811844828,-0.07032354693976034,-0.4062389235362102,-0.406496247755093
2.0556640625,-7.47279374481242,0.8364915341178523,6.196781692448424,-1.6310611477195949,0.14327130676161695,-1.5712253130670988,-6.50576126044727,0.6134021444069454,6.899969646644199,0.055288959177521295,-0.7067343536140211,-0.4122164570726887
2.060546875,-7.526162270818082,0.778991763120832,6.210313035675801,-1.6936135822779992,-0.037733907414294734,-1.4510567938995795,-6.505776821070448,0.6181989014457859,6.900017768111302,0.050715202180613525,-0.4644491748332847,-0.5322936843612253
2.0654296875,-7.49768686723887,0.7454476009681963,6.2296992519288725,-1.694888109197581,-0.21863247932257096,-1.3297118505445766,-6.534421042729304,0.5703813786937888,6.866875463387256,-0.07034482090537798,-0.40626418295637073,-0.40649888787499505
2.0703125,-7.440358477804769,0.721505521132395,6.254186168955591,-1.453810945429676,-0.1573842860316337,-1.0812714120832778,-6.539399674837867,0.5562034472114374,6.833770600963186,-0.008047305753636266,-0.5861854305739282,-0.4708518073024333
2.0751953125,-7.48788660884527,0.7838602340519542,6.229675688724103,-1.460405216482323,-0.156901761216495,-0.6551329807296793,-6.520201930702724,0.5369699106398318,6.847490179983285,0.053907661498856375,-0.5860339654281141,-0.41102481255964396
2.080078125,-7.4834677831577325,0.78884288742839,6.2626087800417825,-1.331498800832703,-0.3380001898204717,-1.0184318811529391,-6.50118340512128,0.5848588586071767,6.866600656630923,-0.13002856277601083,-0.5275959800466364,-0.40628063626994526
2.0849609375,-7.450018048514765,0.6878429101218059,6.244793831988502,-1.0244388287673896,-0.27686955072168845,-1.0731542304709059,-6.520086582964623,0.5607931258099471,6.8713167727593065,-0.13092302628364014,-0.5271197737240391,-0.4674895318452281
2.08984375,-7.478708274402806,0.7647973472845453,6.258093824300874,-0.7829824245519043,-0.034643481308340496,-0.8851943776756195,-6.487010974964236,0.5658376616697414,6.84735973762826,-0.06913875517069155,-0.5868518206986748,-0.46945866487969307
2.0947265625,-7.4447625438089915,0.7453926429518596,6.230518090269577,-0.6017923218323944,-0.09428889881088245,-0.6991021303230954,-6.50129875285938,0.5610356434370614,6.842774063854902,-0.06735372551766655,-0.5877663210987871,-0.34703790612508195
2.099609375,-7.410942673973734,0.7116058571293504,6.207704194731419,-0.4788264751784079,-0.2146400251592222,-0.6969777469946216,-6.5105150776811875,0.5655505716382573,6.880679525214715,0.1764347312027372,-0.46503509827188927,-0.2902168242951846
2.1044921875,-7.401320069713756,0.7115958647627437,6.207853074429729,-0.480428819258812,-0.03355700839871093,-0.6356831933875922,-6.501292329483528,0.6184361578790606,6.8669375069006415,0.1123864180124256,-0.2841876269802885,-0.34828785327142214
2.109375,-7.439847587687146,0.754966900077084,6.225852246988475,-0.3601675537672725,0.08760120522854305,-0.5112627757586672,-6.534823447834762,0.5994188329653724,6.82942661548506,-0.009748291095962118,-0.2854150143033443,-0.34550688978367877
2.1142578125,-7.45474803790306,0.769628000657451,6.267838812992738,-0.17821617964222733,0.08823634198863077,-0.38591917474788473,-6.510985605880918,0.5324549824386359,6.809584718623473,0.1741780555271852,-0.3438815440661036,-0.35024090095598986
2.119140625,-7.469107809667801,0.7214826921240884,6.244345185051688,-0.11929577088641291,0.20924976470478354,-0.2626662220218787,-6.520009322623026,0.5607288978003121,6.88075116693551,0.11307008813482397,-0.34451369292516554,-0.3488663066347833
2.1240234375,-7.458915074831752,0.7549076756481073,6.211462970378394,-0.05843036069602751,0.3300875260561784,-0.26120060541392315,-6.50118340512128,0.5848588586071767,6.866600656630923,0.051494843127021114,-0.22493662028824818,-0.2850949062481791
2.12890625,-7.449411085972134,0.8319541586147368,6.248844343506441,0.06387635881964208,0.14942940096810464,-0.19837464805703395,-6.492029865566481,0.6234505157459109,6.838562682651237,0.1706850689105494,-0.04220238827347506,-0.3473285466903606
2.1337890625,-7.483023580581948,0.8463976164417468,6.2482585984737025,0.12641886843377553,0.3305024141337086,-0.3185164648569495,-6.534823990609057,0.6233383901499402,6.839101616996777,0.1748815258668522,-0.4042132897080339,-0.3508523968752201
2.138671875,-7.497338938813284,0.8078579642709756,6.224721859806882,0.12734733666746512,0.3304620098365819,-0.37937817219195696,-6.553472860654284,0.6277641735423964,6.88656123572069,0.11079729995879113,-0.22335189946147982,-0.4089236675351111
2.1435546875,-7.501861485734408,0.8317978921985667,6.210448125929841,0.12684881120106095,0.20984489509275608,-0.3187840846436652,-6.520668749398075,0.6808726218050489,6.848933823996365,0.1090398638377023,-0.2224472367573803,-0.5313474361178682
2.1484375,-7.5259031694593075,0.8221908136984288,6.2054218650053485,0.12494950721212161,0.2099984034020973,-0.19701966300598026,-6.487500320432912,0.6810561726163676,6.834363061574418,-0.1354618639817966,-0.2848580776074142,-0.587582157603803
2.1533203125,-7.530292408538486,0.836445876101239,6.177099724640618,0.06273155675012343,0.20990042714494517,-0.13734040354063376,-6.5104147477919705,0.5702509866626454,6.894879237946122,-0.13570187780393012,-0.3447219302917455,-0.6493656894216708
2.158203125,-7.5444820404947235,0.8892919746454004,6.176639296101419,0.18532687243848872,0.21022784074008719,-0.1349608993507411,-6.48154354016129,0.48871663939003457,6.903136277617889,0.04541323538527653,-0.16183450284135284,-0.6517537211037958
2.1630859375,-7.53511867207698,0.9230866009263062,6.209517495090943,0.12428278690088775,0.14969546309395126,-0.13631274221638104,-6.51947383805911,0.45503967292173203,6.903278480099759,-0.07616588954547408,0.016569571257376823,-0.46358334764734943
2.16796875,-7.501595004533976,0.8894318303741138,6.210189461575222,0.0033768343397320446,0.2095559062275908,-0.26031960258866643,-6.481396528402539,0.47902678329790105,6.917191625947987,0.04846076444198596,-0.043468688696745396,-0.3445272055865103
2.1728515625,-7.506954163231605,0.8223028442355322,6.229205486424404,-0.056561234745357444,0.08866209089237609,-0.32265223257555836,-6.558086632279597,0.5367417874241434,6.866838021087282,0.046222016175994515,0.07773042100055581,-0.40458310201745534
2.177734375,-7.497501900505321,0.8368069486290658,6.248078389652007,-0.17794749003935206,0.02790368889320952,-0.3860725860105342,-6.5627401196243,0.49359062967984346,6.8617476123892045,-0.012573110708475839,-0.044034405360745515,-0.3431472133134376
2.1826171875,-7.497287212679951,0.8704003428440715,6.243230329707326,-0.17909242973515388,0.08830073356543201,-0.325065699561107,-6.534543356617553,0.5130772062662422,6.8285604290772115,0.10998353008083837,0.07696045604511537,-0.22232790551618237
2.1875,-7.482401589389083,0.8653713016803591,6.205897825381778,-0.11657088112579207,0.26935616527019435,-0.4452056353590058,-6.544139016997197,0.5513942317730447,6.833782361090032,-0.010962158598547992,-0.1048491941604534,-0.28252923547749187
2.1923828125,-7.516199117974177,0.8269572464590544,6.200852016936287,-0.11585604163406092,0.3296654894784344,-0.5059266681061637,-6.548893377005411,0.5274622161889244,6.8241672411722645,0.17494488415610682,-0.10434706754078016,-0.10305898443007556
2.197265625,-7.530988467114847,0.8271306533333446,6.228811731815745,-0.17648211009822487,0.14847940600028794,-0.5075415379630991,-6.582140151860761,0.5751820077563764,6.84865361244144,0.11526497329584733,-0.22563772253651637,-0.10285967162379236
2.2021484375,-7.449329571505251,0.7982287491294142,6.230206541428688,-0.2389626821038626,0.20867643825435153,-0.44772429548059905,-6.558273359757737,0.5943028718902302,6.8674154786925135,0.05557376382404712,-0.3469656675264916,-0.10264566981473004
2.20703125,-7.497035356679374,0.8221608365986088,6.205868504100278,-0.17765762924802161,0.20887135567403795,-0.4465255954083951,-6.516099488545118,0.6906070503015523,6.830101396984215,-0.007761390838224226,-0.2264801511527654,-0.1613048126692981
2.2119140625,-7.554408025163421,0.7594935908467095,6.153586549178566,-0.23969551368590764,0.14849704641259037,-0.3869498767752587,-6.5257326935469715,0.6811170754440368,6.811256128885501,-0.010929845383029421,-0.1048653931869963,-0.2825510960973834
2.216796875,-7.564734067841418,0.7357534728474718,6.200517170339552,-0.17799610466624763,0.02798973670911095,-0.3860249101583205,-6.544434126063291,0.6186130583264475,6.825021667453266,-0.13228148083648192,-0.40641987149628717,-0.46632768083084036
2.2216796875,-7.511439609219251,0.8029117063152098,6.196337061195379,-0.11530157595033153,-0.09264669334843942,-0.44601458155827434,-6.539609471863628,0.6089998886435012,6.829582740013214,-0.19177529426624357,-0.46785402126888975,-0.4043120688444569
2.2265625,-7.473171327088096,0.793345289648382,6.21106720792785,-0.17900860868289137,-0.21331922298259903,-0.2648584778983125,-6.549033422614016,0.5706330295384895,6.824600334376188,-0.3114544643241578,-0.5303664007611428,-0.27969190516632747
2.2314453125,-7.474052352398006,0.6926707192196183,6.244400077379843,-0.24151868905542456,-0.15305095287962125,-0.20500713263758957,-6.53900477865685,0.5176045928669903,6.866406008843076,-0.37415412226182243,-0.4702014056964859,-0.3389191711734754
2.236328125,-7.420979961442865,0.7118006708744005,6.240435521864518,-0.1184431651779168,-0.03213988610418621,-0.2632267272407339,-6.491502432701301,0.532119447979035,6.865951557304896,-0.31308083259373726,-0.46960675296048954,-0.3403043136994182
2.2412109375,-7.4545332828359605,0.764719560259902,6.249071678737675,-0.18128322903521857,0.1487830095031585,-0.20314125338022726,-6.481776949508966,0.5606679949726432,6.903858099624428,-0.2513204194636415,-0.5293315918061331,-0.3422879769047329
2.24609375,-7.550137267001144,0.7452913345520262,6.191303034352273,-0.06104765491862766,0.2700129630746989,-0.07868526381366653,-6.505821331842804,0.5369109438240363,6.861462126465744,-0.31396602700058407,-0.4691339622192632,-0.40151757322393017
2.2509765625,-7.50675410060609,0.7500227940295284,6.187254265227294,-0.00028874122199669107,0.14953803755610467,-0.016895503779764277,-6.54371245679553,0.4792823061663486,6.856646524524001,-0.43713594389096383,-0.22992548235762703,-0.27396613255928454
2.255859375,-7.511410089852621,0.8606512567070101,6.214867086458709,0.12160814604601788,0.08956079467830239,0.046200526685575234,-6.586375673476825,0.4981966387016526,6.880963930178457,-0.25301384461254317,-0.22847837914895894,-0.2169349900126927
2.2607421875,-7.540514797224627,0.8222850114105289,6.219290062671345,-0.0007523163471143689,0.028914635052905594,0.04368339377199324,-6.534203736779102,0.5271463373345887,6.8758767643595355,-0.18875833321096502,-0.3494923580493256,-0.0970731832196806
2.265625,-7.5547042946974035,0.798127440729581,6.190991485511384,-0.18511744851119263,-0.0921817348801592,0.10070375136450652,-6.520302803366236,0.5561890528000116,6.842965468763595,-0.1897503445531881,-0.10906416315339965,0.027692640943007323
2.2705078125,-7.5494561025915585,0.8027404513491297,6.158164163166244,-0.06401957730250037,-0.2123918729503462,0.22457765918817368,-6.543937271670173,0.5129559474526851,6.842831783529414,-0.12638918408818436,-0.22956036279015832,0.08634730569510458
2.275390625,-7.544681834153318,0.8075646864011854,6.162914220057001,-0.12464596077627685,-0.3935877598431713,0.22296003682057958,-6.55346155230978,0.4698886733232853,6.823649665160982,-0.06670438964399274,-0.10824109234555962,0.08614035263386136
2.2802734375,-7.516058363048844,0.7932054339196687,6.177517042454046,-0.1850724843786936,-0.6351348945589828,0.22120520951458492,-6.544246855810856,0.5371324166757929,6.814769208336318,-0.06440172261005846,-0.22939231861203413,0.14616680268892732
2.28515625,-7.506383898172072,0.7787341509010486,6.168336243432036,-0.1860324171195412,-0.6350674771619543,0.2820878208423774,-6.5677284317544835,0.5655295268628997,6.862529315989693,0.05932741280768537,-0.2889299846297946,0.20399906754789893
2.2900390625,-7.501254186983128,0.7833999676287239,6.144903265895871,-0.12854677580956533,-0.6346319744239369,0.5267990112764144,-6.534428551653746,0.5608199786209253,6.86206202336495,0.057226535157905774,-0.10793248836938771,0.20576370536358213
2.294921875,-7.487605233478063,0.793360278198292,6.210843888380385,-0.18719452854439503,-0.5746845440966337,0.34309448587472774,-6.539175945511812,0.5703689202942365,6.866935344981205,-0.06423100153548365,-0.1695264994053309,0.20795228418801806
2.2998046875,-7.469041256609422,0.7743930112805297,6.258199593273415,-0.12666419257655256,-0.6348042839942147,0.40503111388201773,-6.501330416880032,0.5945487146993104,6.852545308300823,-0.12301579892034684,-0.29132276218687714,0.26938130887431044
2.3046875,-7.477649393234086,0.7883890393260098,6.182831289014657,-0.06727001829913677,-0.6344875965518305,0.5279882119097289,-6.477470590927156,0.5801886215757327,6.856818733017874,0.060907718564657265,-0.34979489473663505,0.26463396662524585
2.3095703125,-7.477797460759346,0.7692041296548908,6.1876146828706835,-0.13067714229128982,-0.5741752787507687,0.6486931037941953,-6.505968886375851,0.5705203571007377,6.857081779647361,0.11900261963489411,-0.1676639566899422,0.20379100830875568
2.314453125,-7.512002359953666,0.7839116180225342,6.234000661882815,-0.06916573200500027,-0.6343395866215119,0.6497481434081287,-6.529759503685865,0.5991743793263846,6.8671043105959235,-0.002258762425396188,-0.16936892972849169,0.26776933450808416
2.3193359375,-7.511698777819756,0.7982144903501676,6.215147306176212,0.11329918112913825,-0.5130883594519366,0.7144940026310663,-6.548647120906031,0.5703118894903144,6.871772305257204,-0.0017574156366159082,-0.28957261506405785,0.2053888778155813
2.32421875,-7.5066653407810096,0.8077359413672655,6.201087118086137,0.23491458114201552,-0.5126889975461015,0.7777645985434869,-6.520040443869383,0.5703224118779932,6.880847409869715,0.058805297317669016,-0.16874787622007953,0.26638628036441525
2.3291015625,-7.520854905495517,0.8220802052988722,6.186707615236555,0.1740815436479939,-0.6335317622932379,0.7762873679072441,-6.548832762835582,0.5800338595872657,6.852999759839003,0.05824901617123657,-0.34835742717649004,0.0809921282702439
2.333984375,-7.525495866091812,0.8075711047220354,6.167909151858107,0.11162813833264673,-0.5732808116579201,0.8361146592092045,-6.544193207791174,0.5562231028167027,6.829113285469033,-0.00243706654122651,-0.22922959295058476,0.20598306805570704
2.3388671875,-7.497213078054727,0.8222400457607988,6.21996002131374,0.11089800180317924,-0.6335871842956627,0.8968407909704991,-6.525329202892924,0.6042405068033175,6.829354973764265,-0.0017330958934105307,-0.2895850387303294,0.20538954861562603
2.34375,-7.463341414844407,0.812493803898831,6.201735521365645,0.17588086179701717,-0.8749979045591115,0.7148453476771389,-6.539579436165861,0.6472454889349557,6.848836500102441,-0.12567016712621204,-0.2899107294953474,0.0857332898226218
2.3486328125,-7.463859819287146,0.8416012065813012,6.253275085637693,0.17502939312216578,-0.6336540197355127,0.7153883629486597,-6.553495387427609,0.5990799733238056,6.8721209156537695,-0.12289539867543081,-0.5312619412456931,0.08339374658412463
2.353515625,-7.468722982033928,0.8560674934166181,6.262530324508858,0.05153095418692359,-0.6339267999496323,0.7738672647020034,-6.558675764863197,0.6233403261618137,6.829966630790317,-0.06268118504040515,-0.5301636080904923,0.02079261996556703
2.3583984375,-7.482964340123497,0.8463712133876835,6.243561426069215,0.11259078773538629,-0.5734020635280282,0.7752107542138721,-6.553472317879989,0.6038446163578286,6.876886234208973,-0.06131304167122412,-0.6508522498026088,0.01962003957516964
2.36328125,-7.487597920878135,0.8462970004087967,6.229395469006599,0.11332416802375163,-0.5131227233348244,0.714473182517391,-6.534228434649606,0.5941403658542693,6.90013645033948,-0.06183583702027084,-0.5306504296480583,0.08200566260035691
2.3681640625,-7.472897398804276,0.8269122808093243,6.201521975578681,0.17510436207963123,-0.3923377810672974,0.6550767289450129,-6.525167173285288,0.6136734508569112,6.853037202138978,-0.06428909137274527,-0.46938650237721663,-0.039827327190236045
2.373046875,-7.467723274081926,0.8411837538995911,6.178045887316745,0.2354434570819336,-0.3921065152079706,0.7171490144599847,-6.501276768860349,0.6136394008402201,6.866889385433539,-0.0037280986975172527,-0.34855910649539856,0.021168919592835008
