,index,acc_x,acc_y,acc_z,gyr_x,gyr_y,gyr_z
0,23000,-15.00603540393975,-6.953342649231363,32.36850028959918,203.5016094803912,-373.4633163386522,96.72976567138181
1,23001,-18.384201401604162,-7.673091369897708,33.2520351042576,192.02644599497992,-366.7995587543946,111.57304011948595
2,23002,-25.37275291603212,-8.638460443790285,35.177734856802594,129.55280725657724,-361.5915517576211,117.76029237191644
3,23003,-32.18278826001855,-8.154239200276821,32.79648227317913,60.23917004545095,-330.42463486922105,116.45790880721484
4,23004,-38.49757528990944,-6.726661431498712,25.118940222414754,31.60392063383025,-267.7817209254207,111.39706987310178
5,23005,-44.573054963979544,-5.350559295088642,17.83867072217051,42.613263820574375,-191.06346882789558,102.789863903947
6,23006,-50.1496563609074,-6.430568725493836,12.253740386825692,70.89158984667156,-129.28935135062503,91.17263846852136
7,23007,-52.9219805837268,-11.271932645963325,10.076968384165648,100.14664230068803,-85.189823095616,87.42909672018085
8,23008,-52.294224998187126,-15.777315738232645,16.43517829550827,86.7879172776474,-30.48910167290593,99.88010162146588
9,23009,-49.159191774620815,-15.06153734473265,23.267930319260913,-0.2641597201299994,39.63100247835615,116.31312345070525
10,23010,-44.9913863301755,-7.9101021129780875,24.276662885877283,-99.67153443690731,105.77195435999123,118.88747400288699
11,23011,-0.032634143766748926,-27.76775163405553,51.54504840960363,-121.39403539845046,156.65378913547974,104.96278245327562
12,23012,12.319093633441229,-19.594001332212486,-14.511243536813515,-294.44536485590675,340.8124385396634,79.41975181746865
13,23013,12.77926039361179,-0.20350767755614682,8.40918179135918,-188.99169276545948,479.94872849714994,73.51676652578591
14,23014,7.664541167623994,-7.138229067967815,11.550515762979169,-181.3083864198292,617.8498176331839,58.20875284213312
15,23015,-2.0097200883520427,-18.07555450558757,2.4922834929567874,-33.21911152253271,605.7011403959981,96.54379248360021
16,23016,-16.78424018543579,-10.753687267685635,15.123203460550522,86.36036951990178,429.17637984423595,48.248537658028134
17,23017,-13.89830171514379,-4.363552938017597,18.059159745460946,124.5686850425513,274.58737036479846,8.161502294701494
18,23018,-9.343780511463603,1.4776971902874478,16.532138322560815,124.0067598982185,189.71458170617916,-15.497555584363901
19,23019,-4.863409400487788,4.050120167361686,14.357874659516709,50.68106486040044,124.80561664804964,2.8609872984805453
20,23020,-0.24667966241082098,2.1671189862534597,12.284985237548975,5.7477598371614755,62.25384465813316,53.978888190623096
21,23021,-2.136162006099273,0.3096715117580109,9.493442715018682,-23.489043261396745,34.34231434158149,12.245428538310424
22,23022,-1.0161910872503246,1.7804860935185367,10.773941376285574,-1.1422463315920361,20.751655342562444,2.8434814638926813
23,23023,-1.5080176672273813,1.4852491541791124,10.6900976685838,-27.33701841205743,17.479216638530477,3.53096509699221
24,23024,-1.6420913416872571,0.8321012354716394,10.171930513511803,-34.99355083148593,9.612276681461694,-2.1057473464647276
25,23025,-1.218806128147701,-0.19056445972713912,9.65617592019679,-21.147367610934097,2.4838025267120494,-6.399299795908674
26,23026,-0.682216397696394,0.4461838984960847,10.454172694224097,-21.781532722087153,1.8622206265838894,-6.531141014693581
27,23027,-0.2767931911784911,0.47287389462527196,10.377983822182,-31.21402430778595,7.425464327979392,-7.176561758677811
28,23028,-0.5319075874142379,-0.21303791243229994,9.660929968976877,-29.132214658037967,7.99427769475845,-6.570788926729557
29,23029,-0.5347688850847823,-0.4044094428728158,9.34348594644048,-18.383052308244924,3.148370532492004,-7.014526647883298
30,23030,0.005255751302854208,0.350705131171095,10.0232550863541,-16.068272905963614,6.229289109275387,-8.328256572117315
31,23031,0.4912702781130947,0.37429692277042614,9.987201674121755,-21.740004346328192,13.464911228978803,-4.785593379504345
32,23032,0.24412480953952256,0.11285492645486973,9.66774585485183,-26.086876448033603,15.697072768221158,1.9377786385126612
33,23033,0.1916957183055725,-0.2073718438547387,10.497229975285972,-20.472799769300725,22.302840643824474,1.6855895238193803
34,23034,0.23007320734722086,-0.064500258091204,11.527157578327476,-16.84168533867667,32.882321248431694,3.275949427218477
35,23035,-1.3072859098209946,0.018830158972643656,12.031187909028924,-19.260576628607335,50.08455069070597,5.915825511700906
36,23036,-0.872806211486333,-0.8057411141722292,17.928219518146626,-34.64500377687246,55.39386875135208,-9.95220647979614
37,23037,-0.9871846285628412,0.8653960301232083,8.830982422534422,-72.7925113042104,75.71691278374735,-5.73225108593181
38,23038,-1.4395657586156088,2.914249701858254,11.804686894739262,-47.90946511551571,81.2346007972409,-28.00211768409881
39,23039,-1.6623304959393976,1.7281779948801985,10.373371480736914,-54.70198519755881,87.6253738509204,-41.88016630683638
40,23040,-1.778716583256821,-0.12306185789980373,8.781752250811467,-57.79289899193619,85.4092948435272,-42.84123712937597
41,23041,-1.0625646519661258,-2.702720682266663,7.074272115042475,-38.848789456400766,74.153647127359,-41.33538928898516
42,23042,-0.6851025954927894,-3.846519045737301,7.032650945492362,-30.61677911899073,64.48432863814321,-26.477390715326944
43,23043,-1.0644621445288098,-2.4469749466385196,8.57933483334114,-16.80763375576058,58.23358830366918,-16.338778904697676
44,23044,-1.2150806853718223,-1.6771094914866804,9.927144643680307,-12.555283812398194,58.97309580164154,-10.646381262167852
45,23045,-1.01834049633237,-1.509155750024013,11.710304834128996,-8.157899582750604,63.00145928275658,-8.835214713771792
46,23046,-1.1074766004387948,-1.6720560071031234,12.540177098963069,-7.658572333181122,74.60143591198417,-6.102996258852826
47,23047,-1.1375363220598664,-1.0929852966355156,13.175620237017833,-5.849792425717668,87.64785990460435,-4.149455337800499
48,23048,-1.5704654352030254,-0.42405544214634505,13.927329252814099,-9.70884165353656,102.62644180640027,-4.573234221864535
49,23049,-1.3240702426605668,-0.052878339442303156,14.880504477082516,-19.90627250335226,119.36805163782877,-8.640144834171693
50,23050,-1.2393440890289684,0.4718686083135617,16.50602361517178,-30.16544769835685,140.87934260592533,-10.658222536126553
51,23051,-1.482531392028608,0.7750015560523829,17.969999222529772,-51.61002012157168,166.73760668894644,-12.668912232957739
52,23052,-0.648863102724099,-1.7791616826441259,17.09462434414627,-58.715677671217925,189.5347202155115,-10.16886753736067
53,23053,0.721949331576195,-5.263849481094013,17.525338025829146,-45.05109551505525,212.89221437309814,8.340336140109933
54,23054,1.2023217293265656,-4.992234525463773,19.667142051101102,-29.614094278860872,243.1195868659459,29.877669117354856
55,23055,1.2822188286205156,-2.7977478560225673,22.051507367402152,-10.688000316052547,283.7917034532864,41.52217633370686
56,23056,1.1190639355964813,-0.5595081258105586,24.711394852388707,4.4186425467639365,335.8127648773978,41.152252083838285
57,23057,1.474227375438718,1.350445469907377,27.294429877879498,9.14496357591804,396.8242985794404,26.330433678785027
58,23058,1.958250456088292,2.11181297930223,30.942298312942373,4.780788701754263,464.4590381460179,3.258428732339501
59,23059,-1.0315664829824076,0.3715379269293865,37.9196311436464,6.036454251405438,532.7987364025014,-15.980991467532718
60,23060,-3.366806354965786,-0.13864721292424118,41.344479733522824,-33.10104856426714,588.6010158871018,-30.875457913939076
61,23061,-6.746770185190356,1.5223836303062732,45.602059306367835,-53.450089359514635,627.7942796492251,-18.198139021080777
62,23062,-7.06804903351069,7.810682154094375,42.81550792367346,-24.97598089916229,657.3703649242074,-46.64018202751489
63,23063,-2.3181018117885115,10.680343229816556,44.523168022786145,50.71481860310126,678.3378145421258,-61.35392998014117
64,23064,6.7145456140562665,13.89145143133292,48.47890630324214,109.23718029396706,696.3913412531534,-108.5085383165175
65,23065,10.39185245233766,22.191353473739483,32.70715906671632,146.54022472426985,683.0087263417302,-175.48066705110844
66,23066,33.93374362918064,22.61351151486671,-12.48320375517296,169.98052414908148,582.1951280565801,-286.8489624447368
67,23067,41.52929786331531,1.089499919631618,14.554286849669564,288.1572235668908,80.75365569407168,-304.6361053246688
68,23068,39.91353730502288,-7.842942836011164,35.28542554505642,70.43130481293288,-210.76873588022616,-144.68652332478376
69,23069,29.651669788230155,-3.170370832409273,31.51176082191572,-191.06650629758036,-337.57206988929283,-2.0589766979569153
70,23070,20.488100372179353,7.246458560181329,14.07493764917813,-271.19177743421574,-349.92238325185554,80.3447562921272
71,23071,17.357654255730566,11.690518640699429,6.590589169264794,-181.71495469267157,-358.1975998676328,101.47426326109016
72,23072,13.309477484192112,15.399472707396434,1.11530052548826,-42.051101311963905,-376.16337699892046,84.65889999535163
73,23073,11.928126083153582,14.082988840082592,4.068607822562319,66.44621816408633,-401.2211390167088,50.936483990382214
74,23074,11.201328781463742,10.29284027395667,9.786929202987134,101.80942458562711,-433.0900337846663,20.079614917433776
75,23075,10.621998186106817,7.146365969818618,13.450800392939174,85.0825066904443,-468.2829005547134,-5.485007936789426
76,23076,9.57415876578959,5.766288877804772,14.229322194845073,59.205829468190075,-495.94972107117246,-26.095674664205905
77,23077,7.585644990749108,5.405232682813414,13.936749794285909,53.790633464302886,-503.8505116108305,-44.1748472834667
78,23078,5.5267987603693465,5.550655313641052,13.922821545109734,67.03027918192593,-493.4842606809289,-61.71166650779491
79,23079,3.8261437330908987,5.5245415374488305,14.22735163058573,90.38543309964929,-472.33022128515927,-77.87196117247643
80,23080,2.9610624419703133,5.1101165628548335,15.367351186335117,113.36199312851903,-450.31872528100035,-90.37854583000872
81,23081,2.3602819553836416,4.0546970603230506,17.17943183347514,129.12318916425335,-433.1391364423074,-98.55655606829575
82,23082,2.6857096132373575,2.739862438204852,18.56160497798643,142.6743636498834,-420.8152867000083,-99.50374334945766
83,23083,2.866908887452918,2.022601035332316,19.311945192263043,154.8231245686453,-413.97606225504506,-93.61461084526282
84,23084,2.951090339839479,0.7923376860109363,20.81150281422879,165.19986023972177,-408.9561668480806,-81.36590782294589
85,23085,3.2424956147259354,-0.13706910066759184,22.70955587402482,183.4480197084217,-399.5529369350346,-62.666638463478826
86,23086,3.280498326629493,-1.2295395002102982,25.911276518381225,205.6695586881066,-387.5318320261882,-38.360522851961655
87,23087,2.0573307099373093,-2.298745385543128,30.64779825313982,219.90123827683757,-375.1338081718939,-8.663951612747129
88,23088,-0.7729503752243274,-3.2220794116393825,34.06745460947488,222.59814876374742,-364.520948299585,23.431876695570622
89,23089,-4.556500470209096,-3.560401998722334,36.849518088428404,222.90755129369674,-363.19104201410875,53.09591385611749
90,23090,-6.795740132617934,-6.278018260291572,35.16019797635889,214.38028204379,-372.9766679931431,78.99946788040067
91,23091,-10.557369357750757,-8.13954968035515,34.61146572588403,230.71244117088565,-382.21917630564883,107.93473755502659
92,23092,-17.070162962435408,-9.770173618450755,35.35039835307499,237.12685766363037,-393.5653868065936,132.83637302913493
93,23093,-26.26799808454856,-10.227916467158952,36.74806371457669,208.53090783097662,-400.9437000379338,151.07118013778742
94,23094,-31.45713897923654,-9.193452124399954,36.20117166324608,136.8019305379553,-386.17620277448077,158.69102350529838
95,23095,-40.24077532060687,-7.804963342017643,28.743527080832536,67.25359815095419,-332.12488329253824,152.86288693308614
96,23096,-48.25980301409818,-5.547266273666673,18.247224749530286,54.19214993371534,-245.42204865059773,138.9191517443413
97,23097,-55.15186864238034,-6.287020828266003,10.596274289057654,90.58708755687587,-157.69497356420484,117.6208810822431
98,23098,-58.16004090383572,-12.4156264432174,9.006237132848081,138.1210032749701,-96.69110880903625,98.81470671230475
99,23099,-55.14087549259885,-18.292362061700782,15.811054496163713,151.80507450032061,-43.558827195297724,101.690764758043
100,23100,-49.634621248959306,-18.571073477859805,20.954524221722785,80.70370288780362,28.043294214924604,130.4693895641375
101,23101,-44.184178638853325,-11.854223924051393,22.168416899988785,-9.096882350113559,95.94015795605686,159.63601150705693
102,23102,-1.9195355244474075,-25.59278458912058,51.06572651703914,-61.910355093982815,135.8954516581818,167.46614484680978
103,23103,5.97396974466623,24.33130426519103,28.924730158222875,139.1514176640671,469.3591829403819,78.17000929691939
104,23104,10.24472098456705,2.536198283979004,18.218304863616705,-319.4961973425433,427.239640058775,129.67411910747265
105,23105,1.903579181548608,-10.903988196771383,5.83449854582885,-340.3831565406548,573.0795424444324,81.62471854574284
106,23106,-4.938587563623198,-17.872520783371204,6.6678894474985535,-160.64072878562507,616.9251722547734,67.42534281776793
107,23107,-18.799606281431885,-15.419777658230021,15.881382334561485,42.04459668769728,499.0601514268392,50.74914585158206
108,23108,-13.866114026048107,-2.9617833737862096,18.263050694180855,93.5793096573678,323.50570285979165,12.957502395560365
109,23109,-7.922032305455847,3.5347232278479814,16.90684708313076,99.03278463109925,222.53866692804718,-3.631961780527276
110,23110,-4.507242009086307,3.651845244885107,14.042112743424262,32.01189304399192,153.3046359047012,11.726021936584877
111,23111,-4.832655457868328,1.2734645829230171,11.37820166497065,-23.275573139146644,108.62838431440619,29.740438106168245
112,23112,-4.175770785900009,1.681779866858385,11.344936338271696,-18.24533266536216,63.53568000927008,16.428666439763255
113,23113,-2.0476476110006883,0.8793250917972495,10.604638722297443,-31.034296778592694,34.599738296759014,2.965702619302281
114,23114,-1.8634930855166019,-0.12859476280214907,9.493563830113894,-38.679414154494665,20.604553801132408,12.832489810706386
115,23115,-1.5937290675742748,-0.7954166284889657,9.017769334277574,-28.427817777928926,17.19711113904042,0.8791938150397817
116,23116,-1.0125506065279193,0.034106905873493715,9.896032821049884,-4.698295544004341,6.518490281105121,-4.566023659664646
117,23117,-0.8838484397646025,0.41651821467584194,10.215150536281214,-6.562547329993432,2.4117760215187403,1.4438044336537588
118,23118,-0.8474053045970567,0.22155337184171875,10.095866963439423,-11.525123830882029,5.148347124587258,-0.8615032123823065
119,23119,-0.9355250070813119,-0.19890969653547205,9.578981149787927,-10.960852195195391,4.803559616074112,-2.8532362019963853
120,23120,-0.6113539390611323,-0.17048430262888148,9.581385297795892,-5.9933395837372325,1.9001164148553462,-2.9431688675408822
121,23121,0.007809566298669399,0.46725427132184477,10.063332092053502,-4.022671505697814,3.5888328516413144,-3.0390337994771937
122,23122,0.28972544598448663,0.4189993603224652,10.065122692969142,-11.182446814007939,9.909354772752568,-2.062905997827583
123,23123,0.11718032888498012,0.10500983801883601,10.695887063852199,-16.35949570910323,12.200123160762567,2.9644788223565355
124,23124,-0.17697687037005538,-0.3542042925282833,10.731502291323274,-13.946608543944437,16.880603457526025,5.773079610792296
125,23125,0.22923572137650683,-0.029133273075000254,11.8439338065357,-10.507137701888402,25.328129297551836,5.509296475055541
126,23126,-0.9937292901706598,-0.19719945035937259,12.942842044469906,-16.21381246259712,43.20844898551845,12.87958508380592
127,23127,-2.0863931335220465,-1.0552865828121867,9.250701854784026,-23.61532811725579,57.885281438787786,2.1675228633409813
128,23128,-1.159692884350929,1.1449886720453804,12.116020687599438,-51.41876793029061,75.56413774656815,14.423414115644862
129,23129,-1.037548551013288,0.9945578704696805,11.28509248403726,-29.013268786418166,77.78546344663663,-15.468536794802102
130,23130,-1.1993003040914938,0.7028275251227815,9.976625017209958,-28.378474561120807,84.9961554235963,-18.619885620007974
131,23131,-1.9389722800450546,-0.2633303469972335,7.8697141778450606,-30.70248085573142,84.33397278654498,-23.403384580519305
132,23132,-1.5639768286279325,-1.4493097292463402,8.104959179385812,-19.612803382427625,76.0135844570178,-22.14178164469647
133,23133,-1.679205497236987,-1.2104284698563452,8.025969601186805,-17.3054613561974,69.27171217365697,-17.73233332003742
134,23134,-1.636734531939751,-0.7623618270064504,9.65087519218374,-7.645189689722557,64.78211811778556,-15.974363331332475
135,23135,-1.5612530895251708,-0.8130922773245861,10.442790742523632,-8.282171951076444,64.98338004622097,-12.817483986069057
136,23136,-1.0560158100849597,-1.4280144338357341,11.55205444155175,-7.830497879941071,67.93002521439692,-12.276921962813994
137,23137,-0.9465578375590483,-1.715890745766461,12.501552590140713,-3.20796783342409,76.66795301123628,-8.905672143842692
138,23138,-0.9328663145557848,-0.9086778741434134,13.534038669148705,4.651382695705303,89.9223903993995,-4.959797022374041
139,23139,-1.526230040138633,-0.15782068246979616,14.403691462255914,-2.0221477558486205,121.98581796309419,-3.9452570750933615
140,23140,-1.8100287144380818,2.011379636540941,16.627068340807664,-22.252051854862327,146.24529932538948,-12.091927676940733
141,23141,-2.118571657694768,2.942537508341836,17.97442734576204,-46.93746277090282,176.15126933006502,-24.85794486338969
142,23142,-1.6425543660187871,2.6858530427688723,18.57042385270776,-66.73460931625114,203.6069470018977,-26.507533132286305
143,23143,-0.8709568196657037,-0.7277388414600732,17.928553415310713,-60.3589005378173,228.08516493461235,-16.41185070269441
144,23144,0.5324232983955491,-4.52666623639974,18.437363478172035,-39.06187509339624,257.45005615358485,5.79074698070272
145,23145,1.6862665915810484,-5.047099275494081,19.670330901657948,-18.292659510262666,294.84171667791173,27.137348814984108
146,23146,2.0535258381340498,-4.606428492671284,21.020440572407896,12.172852365507651,342.9908515327623,36.625368536935746
147,23147,2.571455184790535,-2.47684132839131,24.397119088169358,24.906294559660907,401.2467496995304,31.259623718263168
148,23148,2.6860768423408024,-0.44376959243796127,27.13728169964993,40.94903811111947,466.2366257161856,13.433238952520014
149,23149,0.49703881706722824,-0.8055753932270127,34.165514187897344,21.25268242433573,543.1689050152793,9.478617751664437
150,23150,0.3358122560138457,-0.25352020787865326,44.180281832185344,2.4439552098251163,588.2494994107908,-17.432241935568626
151,23151,-6.075332814754497,3.825880335178819,43.67687218392162,13.88073171838837,632.9695469271417,0.6077637292584672
152,23152,-4.846961682085482,5.043731321107338,46.26322138193897,37.63009260698679,665.0916415837316,0.6214764703465153
153,23153,-4.2601914406074375,6.144445734292406,47.30095814859867,88.99953367817425,692.9973227611025,-30.650969392257203
154,23154,0.9191101818676612,8.857122695699186,51.227458508559145,136.54633211241855,723.0370794618319,-83.3766378016644
155,23155,7.736390919241099,14.820347988622052,42.94879532544873,209.97724921663996,687.0881183011198,-152.69552915921443
156,23156,19.693297752373663,25.888321981064983,10.97964323019329,233.78115468328636,482.3909131097836,-257.2622364993394
157,23157,38.781836124043394,11.241690151488115,-1.4926494946485638,307.9820360686053,10.28661714705159,-279.46678921341095
158,23158,42.81988813881394,-5.1781449024696595,32.942117843579894,29.242443242400853,-246.36810223415998,-142.27309900926738
159,23159,37.023382986733914,-6.669811672437605,36.49682626907176,-208.36839595681275,-325.3557911219626,-1.9789529157677135
160,23160,27.104190252088436,3.0447164336282717,21.149500800672534,-240.97719616835093,-336.37056747544756,71.11939317551438
161,23161,19.528843445800344,12.57192676271191,5.2638279430192965,-128.48404148596873,-364.00557824990875,82.39530411329513
162,23162,14.598016160845328,15.125434264049437,0.9253668319333328,8.727137373694749,-398.265811591993,56.973572109673434
163,23163,12.30730222076589,13.276572636292128,5.215773988848773,104.05635591736463,-434.6204667427014,18.19011929612681
164,23164,11.798497694348756,11.26662335243642,8.29112393830921,122.36286531922757,-469.7433312344236,-17.418306926891436
165,23165,11.11400368173533,7.219407082876166,12.5046622503636,103.33845057781004,-501.7242947472124,-43.940635782874715
166,23166,10.469542214628744,4.330479902691232,14.348472474100877,87.72435245754683,-524.984578929279,-64.40182887482405
167,23167,9.258009943700825,2.877234140272489,15.165117939082998,84.12465165450676,-530.1224651297993,-80.91537229795419
168,23168,7.257913419410382,2.1955377450003053,15.623156988979673,92.54345108636001,-518.079059859131,-96.98544124088379
169,23169,5.514695721122844,2.0179212736123473,15.64970651052635,108.76334811683262,-497.6949110988571,-111.43659421948912
170,23170,4.083625796135266,1.5471814580151861,16.508423950443376,124.33451752242394,-473.5088238377971,-122.03800571669554
171,23171,3.084776065343407,0.7398969895167012,18.2395574698867,133.71340233345921,-450.079783501678,-126.83839934567196
172,23172,3.0917138934343584,-0.4432700608264174,19.263808821138745,140.5376120130443,-430.9962455662694,-123.36499599066659
173,23173,3.504338805748143,-1.5621087854367233,20.330766728790554,146.14291460429914,-415.45934823179743,-112.21520095136715
174,23174,4.032940414815967,-2.84409784131229,21.674928911571815,157.0595398895577,-399.0898179201908,-93.95039656848977
175,23175,4.1202470425780024,-3.8453513305895286,23.610825984515827,170.91999208787436,-379.31302598979534,-68.18134150024021
176,23176,3.9746755809216396,-4.559305293692326,24.992147558618875,183.8151874821226,-358.09014738135147,-36.673767966863615
177,23177,2.884750896376999,-5.496394378841139,28.06781037087086,189.4404892105984,-341.68478268609374,-3.0176487526915095
178,23178,0.7452024462717393,-6.545577199186259,30.3044351316417,187.04916490218994,-338.9173122338914,29.267891021868685
179,23179,-1.5115984841424053,-7.582617275598106,31.82785006346891,179.45111458365432,-354.5765006435033,58.03716684842211
180,23180,-4.322410606559253,-8.206141481070242,32.91368162263519,172.09061381814254,-382.3706247716145,82.1445930547965
181,23181,-8.581138259363163,-8.508612622109654,33.95103826450583,163.8163439702564,-412.8557651814687,101.25706959801899
182,23182,-14.998044312915209,-7.80049034664676,34.700267456547614,147.2340997643285,-432.90144478645,113.09708579514694
183,23183,-22.89754460225471,-6.758182047090368,34.37176192258044,121.01721584046011,-426.0745577091286,120.37250026052723
184,23184,-29.99266235838609,-6.677365847821027,30.561973596738998,108.82397865477684,-377.57093497190493,128.5064701175777
185,23185,-35.37798003602454,-8.11999230255418,25.412276733282994,117.6181207178865,-299.5775689263182,142.26360817869326
186,23186,-40.085694232774735,-9.641355565212978,21.771061048249404,115.32322295337683,-220.16898874715773,158.53197310522833
187,23187,-46.81337382670166,-9.342064409402715,18.281400542880576,76.41665732145836,-160.94858123650033,166.98715412986076
188,23188,-50.54943896449662,-9.100234928141681,14.693872600923758,53.677092783540594,-121.59482537483673,161.3463969519853
189,23189,-56.84819346371026,-9.88616659704789,9.34253416666455,86.31723602550314,-78.14462884653973,149.74227393770016
190,23190,-57.36021487121473,-11.82856179329358,13.328469692214341,93.38628341109376,0.1734687320324739,143.6228276031051
191,23191,-52.21928776814021,-12.024641529164521,19.102975024835704,38.0098087172331,83.15106123279023,141.96910993257657
192,23192,-44.36928227149622,-9.428221663137439,22.177089812506004,-29.095430719407606,134.09217606679206,139.4643286768701
193,23193,2.933336014745928,-16.862091444913343,51.9670498945113,305.14179923849804,359.40341830714556,-40.641553905320826
194,23194,2.0071484399018034,2.981169550471751,33.24183505754742,256.33760337700636,377.11624729705534,27.654918379928446
195,23195,8.902431091391756,-3.0711306129520164,17.473336942214363,-283.47734932465676,582.6762783814978,17.06887069064733
196,23196,1.4454291144214664,-14.648010568553794,6.844934791383656,-234.9571613007394,669.1049073761742,24.305788325434417
197,23197,-15.990850336254029,-15.987506201466848,9.843188426610752,3.241802750458373,561.6233550294405,55.75274551647156
198,23198,-15.601043352813173,-6.147856893709453,18.514761434486346,81.75672334617668,361.2761599534539,18.126148224222927
199,23199,-10.088954088268196,-2.451168550797082,17.460629955801174,97.19334338575553,255.2769592132914,3.9090261965257955
200,23200,-7.494736329828049,2.371952399336841,15.005259097123025,59.577796978514776,175.17316593913705,2.5776373201984475
201,23201,-5.044669225508327,3.0504638716780863,13.56089219760518,6.8064558145100404,123.22589999387586,17.418400528093432
202,23202,-0.0003280748381626033,2.501112028271361,13.079688873422258,29.601433991654876,56.50254626495201,-26.86689014923934
203,23203,-2.1267406271169262,0.8484191180633547,10.128998554419645,-22.94492235853712,29.25735073332117,9.923338443482365
204,23204,-1.1864440191728174,1.3599413472488122,10.493953222497233,-28.80529859980278,23.49932009780352,9.501976618231225
205,23205,-1.5701733722322804,0.36598635276117397,9.774724830851044,-31.602825310138595,19.231370482199676,1.9335058801902278
206,23206,-1.5005017350983894,-0.1418552798102753,9.614809159327875,-24.72237043008394,9.84392132428448,1.5843977454457339
207,23207,-1.0078399170367458,0.3034807090261657,10.213810740750366,-22.239933991712885,7.359459941332369,-0.4303260214064573
208,23208,-0.7245587959703568,0.29513547221783276,10.136615970341504,-27.19746633253067,9.792761352502346,-1.3556435292322755
209,23209,-0.7736379433214505,-0.1665592381565906,9.698995177942749,-27.492305652951977,9.154928038909267,0.35755116546732996
210,23210,-0.7346409931580895,-0.24497494083996404,9.619788610800358,-22.11049031859691,5.9424505944178545,-1.7560587327534776
211,23211,-0.6124989077065756,-0.2099397079024438,9.620794509167123,-18.431470715038007,5.716997440986639,-3.6563033140220473
212,23212,-0.2472612249672772,-0.18147347504958627,9.504749827243511,-15.759991651719746,6.721316728552103,-2.735830767931919
213,23213,-0.20571045980810088,-0.14334003758220987,9.465620265800522,-12.306931294474984,4.236568880482973,-1.579430973025615
214,23214,0.0850990434502056,0.2718759985165042,9.865175849233406,-4.379057992368552,8.056861314761319,-0.779579102845285
215,23215,0.044076033700887,0.3090192202563781,10.142096267560115,-1.8867639483181484,16.602956525710912,3.1231215924537774
216,23216,0.08919251970579359,0.5770710556028642,10.460153837188837,0.698179779923565,27.66424040659345,6.70131923561391
217,23217,-1.1907378526872958,-0.03185945239922508,12.704654629437238,-19.319137115014723,37.97985673478297,10.951995746175685
218,23218,-2.2631064867538155,0.3018264233219772,10.521583924019051,-60.83405499019162,53.65129146639746,-9.195789874751414
219,23219,-1.455900554440415,2.101585603225395,11.247114735170546,-3.9774559753055274,61.11378813803423,-12.611437448625137
220,23220,-1.1919027368089772,1.0148366159714057,9.9779606058663,-28.591356042039422,66.72601734155256,-20.58385511277302
221,23221,-1.476856581930667,0.908449788298926,9.85677373076267,-35.92417436122566,66.46735245379146,-19.64154344900812
222,23222,-1.8489159758005693,0.30950311546439513,8.703877065450913,-37.603825636900815,66.64990576195052,-26.28740573888504
223,23223,-1.5838212902657431,-0.40404245817573253,8.900710340238186,-33.81415257636824,62.29169565057901,-26.917483559446072
224,23224,-1.712433999203332,-0.8975516801190191,8.06660169986818,-30.49335583541533,57.34488120726047,-28.046055571238256
225,23225,-1.24280461684608,-1.1674099442990273,9.810306845458806,-23.936566536658262,57.332513606505294,-24.97556134390654
226,23226,-1.442633119949587,-0.9707913815800346,10.245081098213817,-18.54292477535934,62.19692485590021,-23.58064456662292
227,23227,-1.0561902299641608,-1.5767506765802977,10.918168087971216,-15.606205794261776,68.6788941448345,-21.28014251352834
228,23228,-0.7152607664840978,-2.414486284075874,11.51082141640157,-6.100958497599485,76.21635558985973,-15.719622373426079
229,23229,-0.5925931735088533,-2.118708357417883,12.581552273580993,-0.16732905570366927,88.42714084778228,-7.223041587860189
230,23230,-0.785466902686228,-1.425523207172015,13.928748536827834,3.8522346295742245,102.99528169170246,-3.4913084862925836
231,23231,-1.081153561024238,0.16274848675491088,15.79343574706949,-1.6193967387656472,120.78068660722352,-0.9388976077613895
232,23232,-1.350215403677506,1.0535832543935415,17.140907453370065,-17.054879908757027,146.17422491792738,-5.565688081287608
233,23233,-0.8443586631155819,0.21737380943548557,17.141036982214292,-29.76007776610109,173.5894928887959,-9.696249893545358
234,23234,-0.6783928210491856,-1.3102803474824876,17.135924237155816,-35.76880052344084,196.9104733652712,-4.389701682015364
235,23235,0.30417093641485293,-4.229827062958129,17.051688620312348,-25.075021480786692,220.0584526119223,12.1870354933397
236,23236,0.6106788285410729,-4.460393277649642,19.229779874258053,-7.771813376888115,252.43324169046068,30.74411278610591
237,23237,1.247186787689469,-2.711155312824477,21.41834305538563,8.201940774638361,294.2145320301089,38.805067056818274
238,23238,1.3197735296405029,-0.7543096128596142,24.118315959820603,23.855847525802297,347.585552957823,37.495280929018946
239,23239,1.774622475381774,0.21701361364634375,26.579454689267273,30.00461389109466,410.45116522262566,22.788101066000007
240,23240,2.2496624746331313,0.6260080890840417,30.34454906695158,35.38176761828996,479.81206749876395,2.978753962941365
241,23241,2.2479593174258867,-0.05566140618744468,35.24960137377295,27.22886232248179,554.7938138805362,-11.129295295067312
242,23242,-0.8096843627303292,-0.8391604842502429,44.051051977022105,29.265276849070432,608.5002800250949,-36.511158012987316
243,23243,-5.34503411704123,3.9195425926531904,43.642830568422795,14.870507053633743,654.4534230720612,-20.02987001986401
244,23244,-6.807032404527466,6.076722118750135,46.84733464930535,76.3608301093286,671.8178944040368,-7.789130502628644
245,23245,-2.812911828299911,9.9233612769001,50.57223927194945,117.47037477875445,690.7586254717951,-41.0138224330417
246,23246,4.508741239032139,11.974208856023163,51.70098254411162,157.43225479720462,710.5309877248984,-94.2913393611666
247,23247,4.793332433443973,22.449086841801694,29.621090358870948,221.2070760999128,668.9038002519748,-168.4877233959478
248,23248,29.77729786498754,24.689605119427963,-4.825551340580591,246.08583444211445,466.43563119068233,-295.872915507258
249,23249,37.99907557143676,2.8905385309369973,17.26777843037011,301.439689093664,23.085266229949738,-327.90816427803856
250,23250,39.48371192564776,-8.253804690321406,38.249171556449035,49.25222768547579,-217.75532450482032,-206.532915699014
251,23251,31.343584170207887,-4.767793329414136,33.21904965212111,-205.54196404705783,-303.46748233773053,-74.93788802853261
252,23252,22.84209651394276,6.1793517142723955,15.314124238944697,-280.1190278862939,-316.6126292637268,-2.493141104965788
253,23253,16.888159462300038,14.281416094912386,-0.05143609262963796,-192.6157950714647,-339.496999565341,10.810236751935966
254,23254,13.975705316747689,15.530303338211983,-1.9270885463157617,-24.23492610268369,-373.94558558462757,-10.479831921916842
255,23255,13.584131829032,12.199409741579442,3.6371687767063996,101.70076148766582,-410.9938521005195,-40.4425813685871
256,23256,13.837666650434162,7.31318738250011,10.228649312594067,151.31686761389133,-447.98509271165943,-60.045975577394444
257,23257,13.689457133483446,3.6424310463600933,14.130883279909831,139.70399915116025,-480.9636792379762,-66.05787082085108
258,23258,13.011081934956634,2.5221013918306663,15.031819051104012,111.51968890686602,-502.4764099421318,-63.08397213470342
259,23259,11.28775005539058,1.5218677445714621,15.253023102122391,96.64440257968647,-505.4689658654308,-55.012374726165994
260,23260,8.9484862495011,1.6815411081347296,14.80179954396253,103.82514009572937,-493.2689427511546,-49.38967637004977
261,23261,6.809092303798801,1.8672460041783652,14.906207423371734,125.94857759917466,-476.2081935082671,-47.31614332139809
262,23262,5.50196800322744,1.6578256680579595,16.439727172353418,147.60622765867774,-462.5892431867678,-47.04435981495677
263,23263,4.3367385440335475,0.7347372414586254,18.52542668591711,157.3543626875009,-454.79539429721683,-47.03668527260614
264,23264,4.018534755338079,-0.36757436532008264,20.22056945411295,159.8082169961928,-451.01099642462367,-43.89439703821284
265,23265,3.7940010924748795,-1.0008821200983518,21.601665625523605,157.1008825085162,-448.44475534104043,-36.417098410186554
266,23266,3.6082877120097123,-1.6758757857913376,23.101602978140274,160.20859452823146,-444.91427387432475,-26.117143054376864
267,23267,3.4500757423975474,-2.6755572330762414,25.589888390860658,169.70881841932868,-440.5165239616201,-12.068584148349247
268,23268,3.1108633296975166,-4.266324577414679,29.06395497396926,179.0830589040046,-436.72838849163236,8.176865600233791
269,23269,2.722327085662771,-4.8621573583743904,31.03774189354808,180.21917775793088,-437.93968783673097,35.012058747055384
270,23270,1.06482600524931,-5.710459193121677,34.78261822317443,169.20845351534334,-445.31840957937715,66.82863746777564
271,23271,-1.4598895512865322,-6.002675131134549,36.782161548002044,154.20937184536223,-453.4368658090879,100.26152465880766
272,23272,-6.295951368637084,-5.0019134066704725,38.13744202378268,152.87529751954798,-453.39388572472404,130.88604516124224
273,23273,-13.402883386184195,-4.314861504033341,39.27751181799506,155.59455137519595,-446.4805573257132,151.8511907729475
274,23274,-21.87792899905469,-3.6082357648174366,39.22062176746704,145.7235092923489,-429.68750959267163,160.09766039975824
275,23275,-30.8026700748189,-3.78811694563307,36.10928448535734,122.38890074564846,-396.6960032326723,159.54677387035395
276,23276,-38.26667394870266,-4.410985567494418,30.07754232971966,106.17130749642025,-343.00773089837475,153.3011491179591
277,23277,-44.04182356940694,-5.514300916875075,23.699523597086145,93.38083334316111,-274.3203878947721,143.8766246361889
278,23278,-49.05441878708396,-6.542083926534465,18.752060817153147,85.9313399962526,-201.37986456815656,129.70385958240018
279,23279,-55.248868796619234,-7.70070821384582,14.943529033617907,75.27703063540187,-140.84015948782744,106.32267592989727
280,23280,-59.528068326473345,-9.158222571290592,14.669863939569264,58.15997926593763,-97.09220236575702,73.03606921997623
281,23281,-58.546855112440824,-10.252479288574063,15.384718455219026,43.86398823433992,-34.49472126285336,44.074048886548105
282,23282,-52.9177040115464,-10.976822647210493,18.23160647028849,16.531647223475787,55.86178305868811,34.2186583127058
283,23283,-45.20259048161169,-7.503916111517904,20.160566888405867,-39.502980415363005,131.87194435620637,35.840051270764654
284,23284,-35.55413817033556,-3.3547800949079054,18.939583131365506,-73.02740193204933,172.239517548559,40.10974085916732
285,23285,3.605801026234591,-15.743487723904977,44.53543418393481,-50.1111237335834,184.57533167685804,52.17533746397968
286,23286,9.421430669939221,22.91029256551812,20.631496662982503,-311.46837450339035,377.0085623234276,179.20512871289753
287,23287,12.07604538689944,9.805488987286976,25.702088462406223,-369.8956616032535,442.7494285784821,27.906567846782995
288,23288,6.670642630033582,-9.344879775015126,6.072444124809232,-315.57086913186566,603.2953827882719,34.240932636288704
289,23289,-14.52979818628554,-19.492488432763427,8.414214941764252,-138.2781885783276,640.2495362653658,69.900154612647
290,23290,-19.29510176027474,-6.5822048417638275,19.238923049980045,69.14766682558988,478.6578172931166,39.42494854670065
291,23291,-9.783807663505222,-0.512157431705115,14.343971699582179,84.6844144957802,292.95954299432697,-5.480275717949435
292,23292,-8.746563497836537,2.1177322604268993,13.530936442420138,111.51525008896407,198.57943394474992,-5.0737065470728
293,23293,-5.330547766540332,2.9050759076495294,13.439538373919506,56.98849442141851,127.24284578020756,18.650214466567895
294,23294,-4.378412485932006,1.3532788907965625,9.956869953027564,5.149604358769707,91.33970643981257,24.64505975120861
295,23295,-3.677704057348804,0.1989047848764369,9.917485982903374,2.1746933922930967,38.574707247553086,13.368811281946975
296,23296,-1.5481159810663854,1.5613935122750642,10.967185035492555,-1.8967873871901066,19.187769084226776,10.226985985976413
297,23297,-1.7779708029979624,0.13813510473815105,9.811901049670857,-25.101997603847785,18.285676269742666,10.43251249731897
298,23298,-1.3904679064205656,-0.6882029408740514,9.296701549337815,-17.549528888567288,8.894776413004783,3.090531132788706
299,23299,-0.775664002907408,-0.2078317191000901,9.896709029127068,-5.026918888827634,0.6597576100113779,2.524225978280935
300,23300,-0.4056284207373357,0.1643764382777212,10.415385443694207,-4.506592747694266,0.4181014140811501,3.111242075050146
301,23301,-0.4078289002024943,-0.025632285410341855,9.979212941297993,-12.107318346134075,5.106012530853976,2.1412120900629668
302,23302,-0.5769804684493443,-0.4439056870926451,9.501343987743288,-13.541820823678457,6.8121412519063,1.675491058254984
303,23303,-0.16706684517539644,-0.14829615672827012,9.782509195354944,-8.270266072483187,5.247044895212353,1.5949842312632077
304,23304,-0.002889844124648795,-0.037034887802264015,9.823704800767306,-6.454330755268731,6.7603369452622,1.3126053921456071
305,23305,-0.0900412457287891,-0.38131275913723583,9.465457524092985,-6.857426297420352,8.72156780138662,3.405865876212874
306,23306,0.03113029095648272,-0.23699668872871443,10.139758987411515,-3.2998411574807114,6.212210358637051,4.102660362734313
307,23307,0.3934608231693092,-0.25162001248929355,10.379732796485314,2.371422539758308,12.715906098609835,5.815207931781839
308,23308,1.0950022419509704,-1.0704290343991827,11.687440802010782,7.248244793261595,27.401043899441074,11.612423766145701
309,23309,0.014154592402529136,-2.1371750677582195,12.467018542644782,-11.353739297353592,43.673200128186316,22.22949946823311
310,23310,-1.4239433402566595,1.266769157129644,9.106608878817116,-28.603427881459695,54.52581807769243,24.575026111184428
311,23311,-1.7107363750221802,3.318511798154663,11.369061071576011,19.500232932259955,62.51466164053527,7.878741709724494
312,23312,-0.8186983742936313,1.6532386940794987,11.091448059806831,-5.0106494863420235,67.30116745521694,-12.621663351484191
313,23313,-1.3962652616383295,0.9053515837690699,9.896909190572423,-25.80492761955602,73.03885261139206,-12.637108460545564
314,23314,-1.7849691818938946,-0.39561554347486566,8.741007450783894,-35.40829869104309,72.9151703512252,-15.061766769052145
315,23315,-1.6260328736303054,-0.44353870239556176,9.058568381540992,-28.883691271485418,66.57635633206316,-17.241236878904555
316,23316,-1.465247173546087,-0.41345958860410176,9.37646320946218,-27.428418782396715,61.831685366874254,-14.94827892338158
317,23317,-1.2011666417473033,-1.054908385459369,10.088120460806083,-20.68569217927683,65.26052074633924,-18.858416108559126
318,23318,-1.2583064224724267,-1.6445089589216495,10.599826661539746,-12.975018651466296,69.25468981731319,-15.695998930884253
319,23319,-0.9438251069117776,-1.8215374318975879,11.51164774556277,-5.583756772268589,74.92254300143536,-14.585211430463106
320,23320,-0.9751628599738204,-1.2080082742487448,12.543019431732304,2.723806515191659,84.80754691513164,-11.29623421308417
321,23321,-1.009010823061878,-0.6738441960645106,13.692785700597572,0.6525338235140322,112.30530614230663,-7.865952331613159
322,23322,-0.9575567763664246,0.12659548074253937,15.200465348973076,-9.54044088182326,132.56805868669534,-11.884901552742896
323,23323,-1.3010031935308843,1.4413641123131673,17.22200890902528,-29.20601760357547,158.42764227366567,-18.176499560543608
324,23324,-1.586295676234178,3.2736365405612156,18.21702229178719,-48.479068903851555,189.45455459609667,-27.69313172220808
325,23325,-0.7929046164201285,1.0178134862425354,18.648716630589796,-64.34314494435804,216.87455407950702,-27.310241414368242
326,23326,-0.10493410790912829,-2.7327879666416335,17.01538035726606,-53.894569685595414,239.5807707760432,-14.329694175132778
327,23327,1.2820364544506433,-5.368081874690006,18.201713946866064,-28.357693910605256,264.60810401311977,5.528084169261982
328,23328,1.7668165547897128,-5.272847575223299,18.720060671143624,-8.711023853311614,299.6785765695504,28.234124711277246
329,23329,2.1272495944398555,-5.031725163355735,20.465097198516084,19.861497505825813,347.34630781255873,37.05719121431641
330,23330,2.1171294986868663,-3.001955826663577,23.837639419464303,30.24993410836813,407.76321102455637,29.74580363258272
331,23331,1.7043602841469179,-0.8818730770323725,27.286871358200735,50.71313031403306,473.1857737901152,9.691735335693918
332,23332,1.4447160464586737,-1.661777711062925,34.643633785391486,26.534219132954632,548.800626590208,1.7281181828755519
333,23333,0.1114183996045561,-1.51713991865138,42.70905636106564,5.296229203428701,598.2836657785514,12.728232251723853
334,23334,-4.759815986885885,2.780945382006214,42.57362748972879,37.13440848291056,642.163592358422,26.905223652649887
335,23335,-4.107101077181024,2.4654101518916276,47.72228064094208,64.4610015004223,671.5406913234731,-5.201766838344576
336,23336,-2.6823171536235226,4.8625439626372415,49.048319777628954,92.59723183908683,690.6470751764558,-21.081194861304947
337,23337,6.2554471615252485,8.985092388864098,52.09680724676195,113.94339667668778,706.3165330182674,-63.35024081747946
338,23338,7.191405285595459,20.201216271232205,24.879214090996207,188.02138929009695,633.3266762160563,-131.5241288021322
339,23339,21.70972336608437,24.77561866453393,7.03133517098084,200.17456754163786,352.4195607783507,-318.231529790424
340,23340,32.55396296168742,11.916400721788504,1.5929713842775095,242.23653619906096,-17.659900968478684,-279.91933467646277
341,23341,33.98074909009465,-1.8801109138320837,29.25199658597293,20.82198498268715,-202.03639555041667,-202.58110127692652
342,23342,31.248422483857894,-5.759191106690485,31.472798651187507,-133.8284218598715,-244.70164971816584,-91.53054570188567
343,23343,23.999827941475345,-0.3099748977343262,19.60977455402832,-163.78985382473644,-257.768925581254,-16.237574932142582
344,23344,18.807854738758902,6.260893499376765,6.222271172564795,-99.99249413642836,-292.3766726482985,21.588149121014048
345,23345,15.624912236612799,9.224207214568779,2.0165668712375036,-14.010259219458787,-334.34317300740236,32.60421016444314
346,23346,13.993394347400004,9.171373250137519,4.419192734093435,33.99240488258037,-378.48979239373733,30.233704532163564
347,23347,12.473825447017823,7.415760449883366,8.596685605531754,42.81006840768697,-414.10266100227176,22.74476724757905
348,23348,10.885823831745181,5.725414705306846,10.715825808125455,32.309778501749655,-440.0993227147219,13.584930719185275
349,23349,9.40717081569648,4.94444203558473,11.533351849504625,23.00363487875121,-455.35565831596733,3.138207574159436
350,23350,8.024170380096209,4.636561638120412,11.680645854519152,24.043720513041528,-459.02895027949114,-9.302733899759255
351,23351,7.255535550424965,4.622677890081866,11.675165557300543,35.968435002378826,-452.54905835058975,-23.494199324431126
352,23352,5.396428365322984,4.68257987133145,11.741453980508027,58.57237237231738,-440.2652815699382,-39.121723934984765
353,23353,4.01395568513257,4.449976133074383,12.126538842406278,81.88639078809567,-433.1993086467063,-53.72429640291894
354,23354,3.2972421067616575,3.5948910224940023,13.819886802811974,94.24192882670349,-433.8943145472015,-66.62674171443032
355,23355,2.815962680691084,2.38358949137671,15.275953165829089,100.61786704320835,-436.8007856375985,-74.83840780705205
356,23356,2.8600916720945677,1.0811885263242025,16.37913564116979,110.12512161437145,-437.00635449997486,-75.73169166215327
357,23357,2.7926907785302566,0.1736733660860022,17.40399633263965,123.09164016899174,-437.15290483172595,-70.94341937106714
358,23358,3.0518817051864104,-0.5149534076400604,18.82785751456042,140.48630505297345,-435.74691781085863,-60.02733088303728
359,23359,3.4577217676810093,-1.6106904080062385,21.28014796915881,156.19204970691092,-432.59001072457704,-42.21155169895676
360,23360,4.048680160767554,-3.2672299969031564,24.443870272408713,167.21382982500094,-431.33365287812006,-15.731111703896618
361,23361,4.03636705096272,-4.56428656443969,28.59430436280521,169.43010535972823,-436.1027262462473,17.420773694286567
362,23362,1.8701043273469895,-4.804934545355578,31.8631355526558,161.35850164304046,-444.8769249921399,51.8370328458814
363,23363,0.09149900471161916,-4.637032855494911,32.48455036081172,168.42818177160393,-450.3828544325084,80.85631905535587
364,23364,-4.834228920041344,-3.688982012803973,35.263846346471645,182.4445252708736,-449.32293763710715,101.93056065228517
365,23365,-11.275757419185735,-3.365485864439621,38.940208837817224,175.52122445893306,-443.0874224435954,112.97757033967899
366,23366,-18.729273479335706,-3.643340897172438,40.11344387800588,153.95467490955852,-426.629068957089,114.08168258449722
367,23367,-27.027426823322973,-4.516023990372575,37.75568990796549,137.41911328858066,-393.3151675726373,110.18926834831639
368,23368,-34.85250688747215,-6.282063269984912,33.69567704168626,127.72636748326666,-338.85678879731324,106.219505072583
369,23369,-41.420207112378705,-7.930807661577281,29.447120317744304,91.8299403592825,-270.491804119988,101.57833622582693
370,23370,-46.94318859657125,-8.799416890226384,22.31983413706031,45.0583001226982,-196.3590517905516,95.88000054126606
371,23371,-53.17586159074521,-8.866025046912517,15.349157869121937,17.767765186831756,-124.32059952448515,87.62382705355866
372,23372,-59.47074288643838,-9.347215927649849,10.632373582771434,15.273766754262668,-62.18015978017536,73.10750701624251
373,23373,-57.90924250447682,-11.849897927650453,9.999823259979985,42.064611135691194,4.5101452675549405,64.47797275943257
374,23374,-54.955857054887,-12.839364445035766,12.945480322407013,38.73126961667691,80.34562252074124,72.55326494177325
375,23375,-47.58502445844642,-10.782207404270533,20.0906931044872,-26.01997052560195,141.85384045476064,83.41484878803324
376,23376,-46.696717296518294,34.83129115014954,49.13809949014131,-441.7853502573119,493.4661092987242,40.796630488359774
377,23377,-0.370961247144277,23.49769951155028,24.44362064442538,-572.4343454271001,531.880663835694,21.51196177067147
378,23378,9.748456584348258,1.2673617330376519,14.607842256940547,-285.5024446267164,631.9778050680309,22.141142862360198
379,23379,-4.289746579193729,-15.912377724653698,7.472121773171803,-85.31814793051808,626.1620356124322,76.34985856172513
380,23380,-18.068675672533978,-13.496736982306125,16.290245411976446,29.331817386556256,442.54236573538765,41.081397670141946
381,23381,-13.693774972612035,-6.341463404480352,16.390124549308748,88.61987091637337,273.86460644673366,9.290920920130565
382,23382,-9.318075895916921,0.37032705861663473,14.35088766617981,109.78496728383469,189.31570468027002,-10.998788736272784
383,23383,-4.948888078036627,3.820574360507527,14.19800902835488,48.186184753529155,128.66712485576014,0.33897274781105086
384,23384,-7.1929857018038605,4.600713432320703,13.829168267270735,25.09271924764808,51.546699571324666,10.395346467216017
385,23385,-3.5554289091017623,0.16002616535915967,9.561972544526599,-28.65409483098262,27.77755136306891,12.83975391163997
386,23386,-2.7895681671614625,0.05690650432947091,9.56695199599908,-10.438543410626188,18.5197210254965,1.2402767884251984
387,23387,-1.4871612997396557,0.5533511408368651,10.211456633103738,-19.22639704257839,10.402540102597916,5.261601585298166
388,23388,-1.3381741258682711,-0.10859628359642527,9.655670867576154,-20.831577955367937,5.599135280216347,2.797733353165574
389,23389,-1.4693865026576027,-0.5703726718633826,9.454947735040552,-5.79135958464926,-0.6705347766155242,-3.3529061353213763
390,23390,-0.6892170244784538,0.09789928479628802,10.215213197266074,-2.8223781489942534,-3.1088546774018546,-2.262261969888026
391,23391,-0.2337899746991425,0.6252851276559769,10.576812066204774,-11.794951900513798,3.107646781239645,-1.0275316416747609
392,23392,-0.3258723385295849,0.011179184250848613,9.940363029783244,-16.971773344595803,8.44777512778295,-1.4802350387898362
393,23393,-0.6167254467576917,-0.4412209125340063,9.38233585795523,-10.760032740877639,5.246580346654386,-0.7923778733715837
394,23394,-0.2859506924559092,-0.028235382076446797,9.861323411222896,-7.5716782254706745,2.884285387410231,-0.7737257203511885
395,23395,0.03711901188862743,-0.0020813327572776325,10.061608358997226,-11.651003612501626,7.043643285510707,1.0498709820858765
396,23396,-0.16358833426926664,0.007254119778557753,9.822753149636387,-10.511794864391158,8.426183741544879,3.73818111406791
397,23397,-0.1609909143036512,0.1609873206154485,10.021301743730923,-2.912169907247329,12.854045894402498,2.2048204422651505
398,23398,-0.20152977361291236,0.2362231408764319,10.377541430546222,-4.437542715969439,20.640971386546575,5.666667735217209
399,23399,0.47572486751694776,-0.13998615253833702,10.618249901807559,-8.693881766395593,31.723566876377184,1.536269515637564
400,23400,-0.6314378671553792,-0.6199389038325329,11.360476061290692,-25.2366200671842,40.97476090516644,6.336529143213558
401,23401,-0.9932236981231679,1.1496947170052911,11.2464637683404,-58.07337582553494,51.08080142207255,3.465510779881468
402,23402,-1.2180915027957167,2.0841141491211093,12.079891993758714,-12.563392687515456,59.817087877186744,-16.106635887729343
403,23403,-1.2710416057811427,1.1322126160645902,10.175782951522313,-32.83810099854164,69.16356803536983,-22.79174858856045
404,23404,-1.368011326868087,0.2854626612754468,9.419603743748706,-35.10086459952942,66.22244317127522,-23.96340818676482
405,23405,-1.174963177811511,-0.2589862462258582,8.706293834082398,-32.99563553829355,61.47338928296162,-23.966690111395714
406,23406,-1.4612822643137726,-0.4052827480893845,8.664092330303271,-30.796661654898525,58.625766984983166,-24.23606971977755
407,23407,-1.120662531394566,-1.132374711361507,9.81131274382557,-21.792251858158227,57.94762882450771,-28.329056490277843
408,23408,-0.9701356962634086,-1.6056762188591873,9.810427960554017,-24.362141847102848,58.389266079379496,-20.492466397827904
409,23409,-0.9435589813207215,-1.9693651368071827,10.79860907207569,-15.697463901361678,59.72460545315945,-17.518204893002455
410,23410,-0.746990964274343,-2.135613672602299,11.115948807014899,-10.022264280895671,66.85741609634833,-12.026646723209316
411,23411,-0.7937410651370046,-2.1102814427170165,12.421849384126702,0.9832041824444275,77.9622306044014,-6.373070463849944
412,23412,-0.6983132531959606,-1.2667113703502628,13.455061711573217,1.124388236336822,94.16745132461504,-2.117503168861607
413,23413,-1.0489783219914812,-0.4861476559101359,14.44528783269173,-0.9601159636884753,111.32760425228564,-2.483102861058169
414,23414,-1.1184341821624981,0.39308031460523785,16.229495548119505,-12.567438104184289,131.69290811351598,-7.9884701810771
415,23415,-1.4892511952705587,2.144088909826206,17.738105813253394,-32.15000624298561,157.78277373189798,-13.664188642886842
416,23416,-0.9998645612150963,0.7545952532033089,18.369116621201382,-48.372202715065676,185.14458521513606,-20.59118187435501
417,23417,-0.26598593358440276,-2.6150393755234984,17.410524202831954,-56.115333115916826,208.63985488948344,-12.199679568242358
418,23418,1.0328649262911138,-5.670796351949061,18.07997197878046,-38.851040403909025,233.59720793681797,6.689132794080889
419,23419,1.7129350122355906,-5.707352141096235,19.311586986112005,-19.965772087187325,262.24895547196746,29.87843992677886
420,23420,1.8256636729954285,-3.789466738541184,21.892944112033355,6.16481389822989,303.6977451403995,45.52438681446001
421,23421,1.5573209514663993,-0.9948854310807451,24.00026368803797,25.777243917880046,356.7315684462124,45.96956064520375
422,23422,1.5298519061525615,0.2943165837634139,27.330057725974093,28.45478023733073,424.43938760788745,30.178735154320208
423,23423,2.7774871485352226,1.0963037167808145,32.05212972557599,40.311379455525916,499.13435448465856,1.9227193759762304
424,23424,-1.003992560138858,-1.743981405673464,38.50481761937166,22.726210172691687,572.2277394080106,-10.84110117875509
425,23425,-5.170266845991558,-2.4064916259760336,43.38056513783813,-24.97181024214237,625.483778903072,8.890708828882937
426,23426,-3.676108565798095,1.644109903318019,46.65329455119146,7.43269295020123,656.3272115018832,9.34854412097308
427,23427,-3.353004969783199,5.0297312283771785,46.62992081744537,42.789954997829355,680.0431714055102,-7.3915789312039895
428,23428,1.991458900457943,9.609588293622178,50.64442597903517,94.26144706532897,695.9458395776669,-46.6726325558531
429,23429,12.223087140844537,15.87449310026042,40.41211487805374,130.38395709917748,710.6205026808514,-82.72828513062596
430,23430,24.388066521878347,26.280626497763897,4.365011482775642,262.8648362484852,627.1913613910084,-205.13508902310627
431,23431,38.50165648885891,10.355709714010253,1.6285163732855923,235.05794848621528,285.97139563929954,-365.28659756866057
432,23432,41.349009715071965,-4.59723253055013,30.757252330371553,253.91600622639316,-82.75178754113516,-264.80855727394976
433,23433,40.316406696544966,-7.9328019800327265,35.169159667314915,-32.040847850846006,-280.2318132765563,-133.74839325645328
434,23434,33.096365301817805,-4.867207242228513,30.143800225516088,-197.50019285741783,-321.551146881694,-12.509709727079471
435,23435,25.51687916641819,4.5030900035958465,14.33661189344123,-224.48931323780567,-319.9490917711085,63.00595632011774
436,23436,20.035280538286433,11.106313899594367,2.332483509426611,-135.96610876001574,-346.60417379843295,87.25986502336615
437,23437,16.50801799344867,12.245761990146441,1.5206917798091144,-9.374235036287237,-384.1706436843964,83.88556495544681
438,23438,14.81748949008269,10.216523610697193,6.210387490852717,72.44957537833096,-431.2422568974005,66.8096734175711
439,23439,13.732191254730678,6.708555095814581,12.164817621717303,94.62499702944275,-479.62194015191875,49.745564018993576
440,23440,12.071194717575906,4.024969346690471,15.981279337822416,78.2695477428001,-517.2429172239532,36.35982838294637
441,23441,10.00743968833221,2.62894639729054,17.62331846191226,57.30133242866331,-536.1991251104117,24.679387256024327
442,23442,7.12339020793574,2.283345426510744,18.51187856152999,46.787648757470464,-539.0748819551674,11.089145953133055
443,23443,4.377601831852718,2.4140574493574025,18.33472467517859,48.25168129916889,-530.7543819164073,-7.520885378971724
444,23444,2.278744497573555,2.7099925596532746,18.914826969701434,59.85458183927705,-517.7500621781436,-30.493915764287408
445,23445,1.345886813995636,2.7331295165158025,19.54161358060427,74.22545393393922,-503.6133548976114,-54.50962723948645
446,23446,0.4001705976129131,2.2846186857655195,20.48300608814877,85.62419258290443,-489.8041889631171,-77.6034489131253
447,23447,-0.3520155671593037,1.515217580548261,21.622342056444488,98.23291691911139,-476.62838325343705,-95.31669467969873
448,23448,-0.47316718836833704,0.2847500364955466,23.71414382806813,116.09350675271438,-460.9227757991899,-106.45976426854124
449,23449,-0.28943554076439654,-1.6247637950697937,26.280258592662236,131.90780729341276,-440.3553912630782,-106.42424447524377
450,23450,-0.2888612107436802,-4.27818818669059,29.55445361364347,141.8850433878318,-418.8133938392515,-92.71709609287116
451,23451,-0.7489376774542537,-5.938449211147782,32.631585750270546,135.06739320162737,-398.58895281695254,-67.57152603365715
452,23452,-2.6565985023835976,-6.0794992465521505,33.32997833989194,119.79648299472862,-381.64498257914187,-37.241967696037015
453,23453,-5.5456905661944615,-5.312212868103751,32.521158471887894,117.96855768482003,-368.53968638276086,-8.154555959919712
454,23454,-8.011054623109386,-5.752149681532383,30.28549758873336,136.76877690884172,-358.502922657194,16.3550291628139
455,23455,-10.932266359797639,-7.8065323492998635,30.533493391488836,181.86195160133204,-351.82139790118197,42.171737677130785
456,23456,-16.053891770092154,-10.013153379115204,33.258851432265296,206.35076365797934,-356.2902084246488,69.82620191889471
457,23457,-19.190063534144425,-10.741742444453635,34.2232164663997,169.23425613983517,-366.76191411193247,94.71879528025649
458,23458,-26.2598390018043,-10.952972655264913,31.95600938858984,101.27441060066653,-363.730729826474,115.42514100127362
459,23459,-32.98656796244122,-9.67681086328146,25.026950083327065,60.39173264417254,-331.7889348369057,129.37668524631889
460,23460,-39.90220799090933,-7.5138210460242,19.564650264081177,52.54943566099518,-273.1338181103328,134.90006790317082
461,23461,-48.77401663127822,-5.841115254652342,14.759384687336775,45.62751450603747,-205.4420994964914,126.66210963899071
462,23462,-56.12605007472393,-6.857961143493027,8.72681199566338,49.68647415242879,-147.29893964515674,101.53599477069734
463,23463,-56.592350233050844,-10.618791465222357,11.201566159489275,89.02145468886422,-88.12734976584579,74.78440884707608
464,23464,-51.66509766048606,-12.660353226386109,18.51057654721929,82.48648476117343,-3.0112908403987926,64.57854438428343
465,23465,-45.618647330220746,-9.269328714242473,22.089769190570134,-1.1513341613989228,80.07111100285633,66.31070382249658
466,23466,-39.42459795258191,-2.7281247155647907,19.548125629073347,-88.58678338647312,131.70608327406572,64.13858621903337
467,23467,-30.409862566888062,1.4685103831582715,16.02725019589132,-102.39834706226686,151.82090820959235,54.528231669279485
468,23468,-2.739551046338652,29.419723200837566,1.8909058729564585,-53.60267467258797,158.32380854903442,49.89568567185954
469,23469,9.052514119034903,21.639670313596753,23.51297678552011,-630.9524931101631,321.97481113122427,116.26240346120312
470,23470,12.060024817407745,8.511249175404224,22.92608101388768,-319.14941801622126,426.75072508865406,79.85159838815498
471,23471,5.314347476399272,-9.719430873855796,8.515268108459777,-189.58617983405833,547.9605337137201,50.45162011859014
472,23472,-6.412705347313762,-15.369393978709455,13.712950529668984,-95.20584576778978,575.7440675709526,76.04030531090599
473,23473,-12.867548088437415,-1.1059857612471562,13.646918511353496,24.383190860273547,380.35343694077585,41.52852602189378
474,23474,-7.542377723808023,0.15933581214253162,14.085491349021309,93.15269011781172,204.69635000600954,27.59878002290486
475,23475,-3.6129576760366713,2.0282988906709267,13.527209720517488,97.5835439636013,138.18617166076794,6.379203891989639
476,23476,-3.564004847822724,2.007509349960487,11.825547543872961,49.849709510674025,94.69467865102202,33.52698689781746
477,23477,-1.682276865465862,0.8338774721953095,10.13207470363029,23.715317857583106,66.39854283655762,23.378936720153014
478,23478,-1.0906628717011166,2.1300518360782523,11.131070053246933,44.96100998878111,30.859000052149668,2.74641178603189
479,23479,-0.4444340051863157,2.0712620215756528,11.016649023656921,4.09028186242168,16.091011366296083,4.466572889659479
480,23480,-1.086008237242669,0.311575871648349,9.738337521454612,-23.383329316122325,12.146841996748446,10.050391287455392
481,23481,-0.8886027342255762,0.10996035083702915,9.7389010281856,-16.629766688077357,6.707115335775451,-2.2529666537815087
482,23482,-0.15134926258617565,0.7001891958382768,10.617281423178614,-10.866828457488191,3.8395839771703315,-5.343625952703055
483,23483,0.18140794633176402,1.1172631465531948,10.740083536866829,-24.23167140097275,9.02593165523059,-2.6820241054544613
484,23484,0.043945218791486204,0.19746703819795547,9.666681502374715,-36.19009170435258,15.6085282475563,-3.0394058623748035
485,23485,-0.0006435118035627124,0.004691862058719771,9.586414789629714,-31.965061320303107,15.247951225860833,-2.0494940844886935
486,23486,0.5721254761103612,0.4088370478441951,10.14623256237337,-29.34743993754176,15.425103237762844,-2.576399431517652
487,23487,0.2810957001169262,-0.006833257172003195,9.78625313889376,-36.25841095167039,20.71031751228931,-2.278341515317924
488,23488,0.1549473483494248,-0.2726954258236016,9.50721242936183,-36.287126249974094,21.892121399972492,-1.5974701114926215
489,23489,1.0069186790232025,1.6831091384503951,10.114962204909917,-28.592036145221385,20.345368672528057,-0.0893118310558443
490,23490,1.9908187708470653,0.6314877088628753,10.513374389515539,-29.170637170095393,38.37365334681305,4.444637615807023
491,23491,-0.6303173097584289,0.8766000441116629,10.218831818835172,-13.393887577940632,67.39942980831312,1.2057477443367957
492,23492,-1.6512946958206027,0.47927393259699985,10.328732616086509,-20.282378473398616,67.59737991917933,6.237381943435701
493,23493,-0.69210201164256,-1.216807779974562,12.505400821276714,-38.23348572929752,63.44200218772136,-30.36124141789313
494,23494,-1.4820995226039526,0.934731394965444,10.96507315803635,-35.643049198033104,76.55519828145087,0.9169512390712855
495,23495,-0.8420751539841705,0.26963988654748255,9.304510712956013,-46.611005023429584,77.59831921005221,-14.991501920998223
496,23496,-1.0080143369159469,0.15474446628160216,9.57992438716983,-34.014342686260306,75.84267560996891,-13.437929391715164
497,23497,-1.137375073998522,-0.41449568378641916,8.547601049869376,-36.96436903606831,76.94452726857685,-15.118198805227621
498,23498,-1.7167041432242482,-1.1660169454367226,7.669671460261153,-29.431484756016083,71.99517343066562,-16.2989743524253
499,23499,-1.293510635396547,-1.8921186929813425,8.500841894013751,-17.41822439860802,63.08769298923471,-16.16733177219303
500,23500,-0.8593515915544714,-2.261758986311449,8.858600945565465,-9.030531936891796,58.036836362558134,-13.533910718586327
501,23501,-0.902313450950147,-2.1915201241427926,9.650178391866763,12.969923335337699,59.30974779993969,0.2187101152868248
502,23502,-0.8864650534515255,-1.231482589517823,10.960365384875836,17.83297182338932,65.5597181369472,2.045153410542038
503,23503,-1.1922339089772682,-0.18332130864869434,12.30822523557634,14.907989992137939,77.18302442645486,1.0612437266019203
504,23504,-1.2287228970007418,0.15992550801250818,13.100971321951942,7.287391552849324,95.13624789667315,-4.6637382052898815
505,23505,-1.1421909565183141,0.7254906677943883,14.568352768810156,-2.009768327944645,117.95475525301426,-12.253407792077969
506,23506,-1.6472583118515787,1.8600811360765395,15.756843627220455,-17.118991097019176,141.79414500125736,-20.844794825325653
507,23507,-1.2590990928410513,1.4060379662432305,16.786783850885477,-34.98348164152178,164.5701142873457,-25.722287055952386
508,23508,-0.18736012207304234,-0.9424923624407184,17.69501576146095,-50.1872209504705,186.5816021893402,-10.041117870078043
509,23509,-0.15581904211105102,-3.235300889042072,16.735897256098355,-28.712668839077374,209.85467205298772,-0.5757466542042805
510,23510,0.8964265546636766,-4.426557495679507,18.875718932758325,-20.74984206829649,242.7088416843444,21.793877353479058
511,23511,1.1493359756620103,-3.559722343283557,20.820468487425114,1.044639405326001,284.91341377678646,33.68794191108001
512,23512,1.6556434638709898,-2.15889150899699,23.12541866138941,15.912471896573217,335.69849356644505,37.30049536762795
513,23513,1.92338937651803,-0.4453880797044309,26.06324508369296,23.627444925399974,398.1906757071204,26.689206855630246
514,23514,2.9373962534511815,0.7536336858758972,30.864460989452382,47.202516612597925,471.6289720660136,5.475888108174077
515,23515,3.4917547590810907,-1.7573627420624336,37.111617848834655,34.919001821301435,551.3816008813951,-8.218183413173536
516,23516,2.3388316660336512,-0.8269964975855738,37.54268557778867,17.133943560153963,605.6617163462062,-0.2931276331720932
517,23517,0.9870637904668038,-0.3390458979652555,42.99713753527494,2.2988235980048852,652.5066939259718,8.974239109076516
518,23518,-2.205729712200173,1.740324337495133,44.32886935711116,49.30474896603476,670.9907232330845,3.6772717225966
519,23519,-1.7027891137092297,1.602889473976521,48.01275378466855,59.93789295140928,689.2196229869448,-4.881869923704219
520,23520,1.619249497957332,7.4048218353724495,49.95987799122715,105.78362343321871,706.7367812279564,-41.4147747254595
521,23521,15.224732234903753,13.898360002159972,37.45669614565622,165.81760781239205,667.2169222547697,-85.06073972450451
522,23522,25.39291171726073,26.76642821869416,0.05992502913120373,262.9477512570638,476.4489332171243,-254.9581930834269
523,23523,33.98826518746631,11.604367045157895,4.253639807071178,242.45022303837936,35.68288459792806,-298.1368310991924
524,23524,35.51407528181226,-0.551718689426156,28.19963051495096,88.20435415120932,-187.96657551866628,-229.10336439718208
525,23525,33.37942165437681,-4.5050746789278895,31.77004981891838,-125.47150549526309,-256.582868645065,-125.7688361016833
526,23526,26.82578628610175,1.049573940410965,18.96245277740686,-192.87627048804163,-263.589756364619,-49.35812931130166
527,23527,21.157885249535063,7.766028889954081,4.463961963858945,-139.80127768306878,-293.9847513375567,-3.938795735397125
528,23528,18.79395916710076,9.713379073707195,1.4076652351185384,-32.33086632264772,-336.9352175600574,10.345859448111701
529,23529,15.618720188780705,10.668571227549851,2.0224643188448512,44.791464248453266,-382.23832304398996,6.894840656456724
530,23530,13.743160564762373,9.274503558003621,6.31767135802721,73.43412597206046,-425.271711399469,-2.284473390163693
531,23531,11.971338565814994,7.024350481132413,10.095554398796803,72.01854170874807,-459.5651826377308,-11.429519927108089
532,23532,10.584661509935831,5.2888480300863705,12.176349742496386,65.40667419856769,-481.37426746965485,-19.856675073744075
533,23533,9.018150421221677,4.310516656103909,13.427819500594863,68.473014503503,-488.8918187743639,-28.39853168946743
534,23534,7.335398758048554,3.457697283783082,14.283189555122016,78.41680743465882,-484.7578878815549,-37.15593157312522
535,23535,5.495076027992416,2.692710744573999,14.742013307567568,94.92129580873883,-472.89516659702707,-45.537093348950435
536,23536,3.892869832255703,1.9850751415503958,16.310981335438285,108.2329461314122,-459.3957753491068,-52.8660564678239
537,23537,2.7673417464003585,1.022117879706282,18.357217390394897,109.69068539192727,-449.71343190566245,-58.33059515826251
538,23538,2.540430936306672,0.23553119300860656,19.50018880775775,106.46845230692949,-443.7358210828105,-59.897502488051565
539,23539,2.2328415959810473,-0.6223254105314945,20.28608158852057,104.40243487398973,-441.9038966768759,-56.5005995133285
540,23540,2.2298908404847753,-0.7025990278310721,20.48362849112285,111.90620047330525,-442.6747460421553,-50.60059565597004
541,23541,2.260297153978122,-0.7987312182963326,21.94789216215809,128.2402609176202,-442.83848220376586,-39.241756834065676
542,23542,2.2643691886262753,-1.8023377300535268,24.31856769473162,145.87332926951217,-442.03276728849096,-20.068490579428715
543,23543,2.3727479608389093,-3.3641028947290885,27.400115776100176,157.95656111009544,-445.41856462037845,8.76307450821904
544,23544,1.7154840159602442,-4.636828094944257,31.269042347971922,151.16995168137598,-450.05476721704105,44.16339365288621
545,23545,-0.5619094042366973,-4.704331828410231,33.38999374372106,140.94475364797728,-449.7590926322262,78.54221164488985
546,23546,-4.983034930375146,-3.43469644916578,33.957716159792945,149.74376576161944,-441.48754778606343,105.22009307536594
547,23547,-10.98742994068763,-2.2772314425016225,35.186659153540916,160.1797908465276,-425.41789190400584,120.80812175289658
548,23548,-17.85654841081779,-1.9785830629952166,35.49563800248358,162.69580582910243,-402.11845968357875,126.68649864633184
549,23549,-24.827875046935922,-2.8713351006378773,34.49286886706844,154.53847985138205,-370.9762908373246,126.97641406474074
550,23550,-30.765729301894527,-5.0577853970254045,31.077715569430495,142.25757493814294,-326.26992517249295,124.43865625411782
551,23551,-36.73870505560991,-7.046545237073903,27.544388884914706,127.30211087526526,-273.6895582173444,121.17730958975582
552,23552,-39.61341362330526,-7.484164826460297,26.255759341356306,84.96136167394445,-223.19218463800607,111.41457238186004
553,23553,-46.00661743140302,-6.801349629281384,22.413820081654375,23.583237122487933,-174.5645349113501,91.88445332860658
554,23554,-53.84854607059275,-5.009710917349651,14.56868228246012,0.4047731976681046,-122.67245809722912,63.24640172522707
555,23555,-59.28023682406963,-5.377129191404501,7.721158852872071,49.522575811729986,-54.753108598500745,37.76611641083333
556,23556,-56.54135889518801,-8.54764281809286,10.854228994758099,92.49733648899617,32.1897190755261,30.586187567522995
557,23557,-49.09697174479361,-10.015869836784049,18.856210523139385,41.83586329948614,111.27186115055116,40.592759774635965
558,23558,-40.92781560018147,-7.549754735779592,22.16951862420912,-43.90302159039883,154.04878336793755,54.66351600338621
559,23559,20.202865432531347,-39.080756847826265,51.2454923607911,-64.47077680247553,185.2381985629537,52.77930104456494
560,23560,7.527281624863208,-3.012803914862486,33.05822990901032,178.85523760520883,312.763999104781,4.288451791376022
561,23561,10.713105249398977,-5.456564170206787,16.130594485579575,-180.15189698026055,509.41590208428323,52.37857821656105
562,23562,2.801015349108337,-13.941074268125277,6.026235903055679,-182.06928156355843,619.0199359543358,69.81124168890739
563,23563,-5.801926588338993,-17.197160132981136,4.725176488679589,-41.242089222535114,559.178236468744,83.93021961885152
564,23564,-19.96119549278094,-9.95041123900993,15.381149310369212,72.56439968060178,363.78433947755775,29.041337648643832
565,23565,-12.44543378092299,-3.1059763615366105,16.61013887788569,115.3026014418228,230.1379085027893,-3.6555497888586177
566,23566,-6.770031660432595,2.379889812501824,15.643678303665762,90.67577121101702,154.14049602068673,-4.628916406336374
567,23567,-3.050077271709972,3.535337509499943,13.260323044611377,11.608000599862718,111.46513110243143,28.641964934250183
568,23568,-3.5745587453875887,3.4799720452780156,12.781439778940895,4.812921165789701,43.39860626584824,54.79876701534815
569,23569,-2.220408505063069,0.19394923154969576,9.611111049275891,4.739810979122311,22.20257849878384,4.1956326587434365
570,23570,-1.3500932648137076,1.3239567375300565,10.69054847396859,-3.6003674366077516,15.293094576018088,5.341460574489956
571,23571,-1.4402390268839205,0.8622211882093662,10.371376511501413,-23.88484256458741,9.634036447676912,7.792371529077727
572,23572,-1.2589916519263054,-0.18878822300346887,9.616320110315275,-21.66094850942446,4.042528976258799,0.694775788607405
573,23573,-0.7679589529501621,0.1789997620383003,10.175411634620408,-8.84509856905422,-0.6428577232079647,-3.2282091580727625
574,23574,-0.3550073642403419,0.6292510310745346,10.575973116420052,-13.585892296744925,0.9931607282658921,-4.4316577328067694
575,23575,-0.35852948011627195,0.4365166938815658,10.377257573743476,-20.305600340635056,6.743598261164058,-4.712781156117716
576,23576,-0.49176566860543364,-0.2519982098421111,9.542314190463255,-14.289653836086178,7.1075341916676384,-4.347024718942387
577,23577,-0.45017129847645704,-0.17668071168859378,9.6616562174154,-8.610816095485514,4.1404323699348815,-3.8472612950619887
578,23578,-0.08141149986122868,0.04451985835723252,9.744327078168366,-8.500631340169724,6.211068104265748,-3.4063137586537993
579,23579,0.08276550118951899,0.15578112728323865,9.78552268358073,-7.061526653364573,8.285287377080417,-0.527589649521312
580,23580,0.08505543848040534,0.23469193783036327,9.70670426083827,-7.300595651494503,8.761028987988492,-0.9880029870972492
581,23581,0.07959447295811832,0.07505324106617682,10.022645746136279,-3.921436243747077,16.2584705711507,-2.669127960381052
582,23582,0.24297759300795216,0.2588655556945275,10.539089168152003,-6.849464713373509,23.980043555927676,4.647102960542598
583,23583,-0.6488593287067754,0.4303253253304015,11.720889462657064,-25.36212758183622,33.32669730181727,9.152881930043494
584,23584,-0.16342290593457467,0.8978545005760018,13.784375910932686,-46.988658738532436,41.53731208992091,3.0940725954420802
585,23585,-1.5719430195266217,3.499169381961927,8.877269738632723,-63.87243101515885,50.826251319890396,-5.800176143340118
586,23586,-0.700603912241778,1.2347968961035798,9.824013456684352,-50.69340236572157,51.024189803754645,-26.334340907285736
587,23587,-0.7817665929137735,1.1254343807400449,9.387615551595744,-51.828486395546285,53.60026404541758,-26.33249552761446
588,23588,-1.158979469631234,0.44167140143109357,8.828027388418988,-53.6997759916983,52.843034252442386,-30.099125042962584
589,23589,-1.3026970436947127,-0.5652123579859876,8.545814655828242,-46.88441907051349,47.764532541714516,-32.94504048981929
590,23590,-1.6633112468824378,-0.39867290905845487,8.66269408066207,-47.272944355729564,42.98466655309139,-32.266036160700345
591,23591,-0.76194132499727,-1.4141004936873367,9.535627833432526,-43.71084625110806,40.08063356384615,-33.29023650881684
592,23592,-0.6957940516254366,-1.9292104289385348,10.00893072116172,-34.42518187405798,42.339551660759696,-25.332443061871203
593,23593,-0.596418276287258,-2.7571971539270583,10.441601510209539,-22.43944815536679,46.03479848873724,-19.73651636414594
594,23594,-0.5587016054509955,-2.615688374915977,11.59025759311086,-7.860335877933348,53.808470902429534,-12.131380412189356
595,23595,-0.4327321693349495,-2.1276303799825014,12.899280152920138,2.4913967785748126,67.73887930306148,-5.886909749768822
596,23596,-0.4245452168237735,-1.5172402658097814,14.089236128831004,4.591160100539161,84.12888454002156,-1.5504871086581842
597,23597,-0.7717340225992917,-0.3956602403496063,15.9516403061599,3.4459662352973814,104.82685526035264,0.5045852504561076
598,23598,-0.9513958834412061,0.6957131139717599,16.588135176068267,-6.639300852133361,129.06151879990145,-3.186934729670925
599,23599,-0.9170224128294179,0.4222917295079962,16.50809386601566,-20.6220423748592,151.34198884781839,-9.012422950256644
600,23600,0.03530720313434783,-2.0669205182446,16.425415033646424,-31.198738349794574,172.80931841154595,-3.7275174951351087
601,23601,0.28186211760695473,-3.412206845179209,17.292371850326646,-22.423990805728327,195.09260331325387,11.47608325211827
602,23602,0.9971386643616795,-3.38661893477991,19.791037523255238,-15.446757601489793,223.12943545745804,28.072219330904073
603,23603,1.1697642477424046,-2.441863187564339,21.973018634949266,-3.6601098076286998,265.3064414148947,37.93734240225884
604,23604,1.2420021499350364,-0.7824899730886031,23.40521883222317,-0.5426152592871938,312.93012896661264,38.01559929487182
605,23605,0.9595687170161596,1.4266200201131807,25.549610339450417,8.654873672238253,367.28407360588744,27.808330860155007
606,23606,2.3142870325803724,1.6019858747672278,30.151121631664527,16.45344303680816,432.98064518489537,2.263411706447075
607,23607,4.290988794091258,2.383811738613156,34.561618050348564,18.67787118047389,505.6198472580009,-14.397840520489327
608,23608,-0.7788942805543826,-0.4418148274621432,40.015786199026685,-1.5121231429090949,583.1038025434826,-25.322964656134232
609,23609,-5.057626116926251,2.0174447322077036,41.93511240933789,-25.30308965155549,627.5800913005106,-35.92176171179337
610,23610,-6.462567337854711,4.3189246413682065,42.647098908838636,13.503839520194006,658.1938628017488,-36.632328983672416
611,23611,-4.77044014855517,5.858773593821455,43.10074720724625,64.08198685315199,677.0726707177546,-39.43765593706288
612,23612,1.1109520897188825,9.13671976136915,46.79704888499783,110.21416051335547,687.726970306661,-82.44806377840831
613,23613,12.689415401815921,12.831935690803958,45.627394998645855,119.36920760609456,689.750638369526,-116.33450330260392
614,23614,27.96297190420595,22.192956840404197,13.516304315757505,182.30087627540695,595.619096966802,-221.18701989855833
615,23615,33.09027339472981,13.230730155025855,-2.1578987089370947,148.96099967714758,263.9267835730386,-319.27229457836614
616,23616,37.38209182568962,-1.4464119651701879,22.70756836075814,200.1466388416078,-65.41369140790744,-244.08199502164555
617,23617,35.19836772694868,-6.020283966124437,32.766140616913674,-9.997628130517805,-235.98689127764288,-117.02235325494577
618,23618,27.142774037671092,-1.2575764610748914,25.129614160223355,-173.59648868067865,-268.5386644831822,-9.75230858760357
619,23619,21.144424923198656,6.614982951657206,9.485739367555615,-208.07775184171928,-271.66237135576665,54.40297430618533
620,23620,17.41053737975154,10.898857741764683,0.6903481173504591,-135.8288303347365,-299.10129054824137,77.88490543013113
621,23621,15.470088598326106,11.07159303393261,1.3502204857466829,-17.965923686028823,-335.1166683142337,75.87831818029291
622,23622,14.997966673532947,10.361400779517036,3.3229472597228993,61.38345926447806,-373.7105459270388,64.37684729097508
623,23623,13.814263211609005,7.572138152151947,8.171411036587903,91.07392497869883,-408.88895739867525,54.44771909106766
624,23624,12.684046599624853,5.068189578997748,11.834038304857264,81.92164820895472,-438.15094466151845,47.28007594788094
625,23625,10.991384911257072,4.009462070876908,13.63840145535275,61.5579871361775,-458.67035441267234,42.44344808815542
626,23626,8.924918592973537,4.027887376451658,14.494647879402443,49.712958413716684,-467.0457066983267,36.33479189273814
627,23627,6.348194575197764,4.502504679608338,14.478419769815483,51.046672350174426,-467.8202114959473,25.53782155052905
628,23628,3.7772826105888067,5.2487671305051125,14.582088780162643,64.32497274090787,-465.01020615402945,10.57377262037858
629,23629,1.87212974779935,5.372548209078572,15.994020889017245,85.29964984725497,-460.0317363605146,-6.424943938118842
630,23630,1.1958219659421703,4.516141130692006,17.68764849935118,102.13712518006875,-457.49130541076914,-22.43103492564454
631,23631,0.6759402823225648,3.532445813920134,19.81723162313795,110.6565842939429,-457.8103329353526,-33.06560726427247
632,23632,0.485470359510297,2.7363603189015557,21.672853569587943,112.44285899613112,-459.1035081656009,-38.48861637936118
633,23633,0.37360930237420986,1.9330881990957622,23.92479641542715,116.0784275665914,-460.88151244771274,-39.26102686688088
634,23634,0.39151041859340907,1.2918486374803777,25.307570486407243,122.12972184759047,-462.9206041964466,-33.62657259044071
635,23635,0.2169591573841835,-0.14956483941094428,28.902151943416794,129.0883263042617,-459.8813230015154,-18.288707138768036
636,23636,-0.4000275580040215,-1.7206302240039415,31.46400929810244,135.37795896422756,-451.9091041353806,7.197400219595551
637,23637,-2.048405750565356,-2.8468709807885317,32.23933804257698,146.7269149333196,-441.9133578590143,38.81960680430937
638,23638,-6.073287013070753,-3.3604564509601658,33.98990872026577,179.33201257658817,-429.3005322435237,71.63833341810205
639,23639,-11.481788172298135,-3.96063503014921,36.996907573152974,206.75295447142952,-417.18293856252177,98.66493441032517
640,23640,-18.825011021837607,-4.376267325315737,39.634798635651315,206.3019154507662,-410.1283766593217,115.76344325217754
641,23641,-27.64051664569716,-4.659013052466361,38.3444697640128,164.4863424099009,-408.9213862302335,118.01325711749843
642,23642,-36.66048967191577,-4.224926494060631,33.05810896341903,111.31072657428705,-391.54157750405824,106.51238553119354
643,23643,-44.5183170572323,-2.8741112739003465,26.240114888607387,77.10398822721389,-335.8257395081382,83.92822567021908
644,23644,-49.77838738952,-2.966541162007646,18.76166013955424,51.21182070066691,-249.9696313106157,53.34308550557398
645,23645,-51.1223818834124,-4.094701400208217,15.502011169710617,45.8347804312597,-160.092249295439,25.305039934887635
646,23646,-52.41701689529095,-8.602209917024249,10.685206384836343,52.739271594023464,-91.42574160093295,10.387803194698558
647,23647,-51.4107065656479,-14.090298727098695,9.878140582275613,69.31772977563607,-41.60627094864084,21.471538026811487
648,23648,-47.08614289616422,-16.587246919574774,14.410454692786375,58.909307570398525,15.532607735202856,54.714499003079155
649,23649,-41.86480635808988,-13.798343922179509,18.377144759792454,12.044826582233819,82.62079067255696,98.4051673127329
650,23650,-36.218059608642434,-7.285381233769839,19.789481744555808,-45.740653781200336,134.8283805940681,132.12682504031915
651,23651,8.863125944934518,-9.457242823098515,49.74373093194795,-73.44548956797907,163.82052120880576,149.81119071440483
652,23652,5.382792010354849,-6.567946548687418,32.63267994500734,-663.2623325338144,393.6546937732042,224.36505149049032
653,23653,6.804166070222327,-6.912348170382701,14.672161442286917,-414.7844143913963,460.88159959309206,98.48316384125148
654,23654,-1.8611966605671186,-14.303331045722658,6.625124388993834,-219.12321741490453,572.7338656982106,68.95754889663182
655,23655,-15.43712743320475,-14.981576859339551,9.05964133974554,-93.0117354305693,584.031756485228,73.36947137489906
656,23656,-16.68930848512037,-6.440460544272921,16.52690035152183,77.89960042964854,421.0526785944229,33.63903349611187
657,23657,-12.509249759920264,-2.2893055205389277,17.048423257738108,113.35222183257082,251.4520802908807,-8.266632830444559
658,23658,-6.915143382897394,3.1611119905907694,16.002084115173112,85.38521339814722,181.99319255724347,-11.1122643482893
659,23659,-4.082986246780508,2.519898712215327,12.853062585157483,5.0948751421946,124.54804253890258,10.501524021186064
660,23660,-2.5035463611571314,2.364512357312886,11.715759447967825,10.210403028667976,51.199606200542036,-8.258443567324557
661,23661,-1.733249009607385,0.25699642842258924,9.535648425672317,-24.519866693474157,32.09733073417003,12.715856861413426
662,23662,-1.145246589544298,1.471534368253502,10.850919157751056,-10.75200295705338,22.807061029469608,4.819283328258693
663,23663,-1.648343940324331,0.5595475498965774,10.131185713484232,-32.90117892436604,18.766740060537963,8.76466440548049
664,23664,-1.4685490166868889,-0.6057396568795863,9.138171506832329,-34.89583474865303,11.538951585509844,2.5093529949656275
665,23665,-0.9352175244065828,-0.124087306245706,9.856348166624922,-15.271086153126719,3.486677126634426,-2.5321302510537773
666,23666,-0.5175552462055889,0.5955377659432002,10.574687568125048,-12.057521811503236,2.4086556630445317,-2.4455615893985203
667,23667,-0.604529980044401,0.21453010283957172,10.018392543102323,-21.747017733099945,7.703403678015722,-3.064031891767304
668,23668,-0.77553094011188,-0.28174557155488755,9.54018969238353,-24.235754670328927,9.48909689231327,-2.863987663220829
669,23669,-0.7344207204229609,-0.24452067192247975,9.580212450847085,-17.950288205141554,6.1852530842710385,-1.7461572303942163
670,23670,-0.3235824012386985,0.09008999479797326,9.861544607040786,-14.08741049544226,5.49985139375502,-2.3575789543260757
671,23671,-0.043736186108639066,-0.03662145783104667,9.90257747074561,-14.272378672869186,9.726189922632013,-2.0623764452614046
672,23672,-0.24677707452721978,-0.1433808765284768,9.584069095732099,-14.37960332899132,11.277406458527485,1.7200907734215074
673,23673,-0.24576516867730466,-0.030011618800117,9.901179221104409,-11.764407619104457,7.441066543486491,4.33546328133053
674,23674,-0.16279670115448014,0.12016910858943328,10.179439434961973,-5.11732785611833,11.873183275542141,4.02103314280439
675,23675,-0.8446770697220406,0.48683875473703214,10.769830322719361,-8.725707593292931,20.35787902709764,4.795803234730888
676,23676,-0.49771303245390536,-0.26426347061418687,10.610870509201618,-15.485029569283604,26.161438634679346,1.905204952582526
677,23677,-1.0084830676520204,-0.5985675368572602,13.930576557481293,-24.783368619591926,31.600663503915285,2.672572483319675
678,23678,-1.255714220033997,1.4605753879426489,8.752376781860837,-28.461858774627068,35.55830517349035,-2.8993212485210345
679,23679,-1.1826602734780858,1.7757800485586264,11.643498295544612,-51.37477835907661,48.77299467651728,-1.4554476863290753
680,23680,-1.0711281406241624,1.1954282092310995,10.889885977486509,-36.586957662799946,55.488388377826865,-24.091380602205756
681,23681,-1.605030993284126,0.6013151387038281,9.775446872415062,-42.659531552834906,60.86511515271675,-28.113399155286892
682,23682,-1.5390994968751661,-0.2851811344912943,8.624457716239647,-43.44048166293741,58.41509911502552,-33.10591187722256
683,23683,-1.2709668459044676,-0.8440849694595627,8.94068726521491,-39.553583865237044,53.45375553108257,-32.81706799671116
684,23684,-0.8839067426834556,-1.4858655183935137,9.336574186717353,-27.03850159727474,51.285040745144656,-24.236367399199743
685,23685,-0.937788285237578,-1.9203700842664504,9.928100501685734,-20.835450025918256,54.1371193071562,-18.36166579096709
686,23686,-0.40376931561726637,-3.0799045040639705,10.797849610773854,-7.700127662506149,60.609297744656374,-9.36444913780544
687,23687,-0.666711622428989,-1.8426021983954808,12.542585453845541,0.2485450473080466,74.47415781736899,-5.4454407629634565
688,23688,-0.6551792218072112,-1.0027479552611354,14.129304720781393,-1.8804738579405829,91.2504333283703,-4.923087577981185
689,23689,-1.0064615038383173,-0.1863629868873205,15.396730910154856,-8.465855099263738,112.37742987866129,-3.9305009201741545
690,23690,-0.9190898294990483,0.15836915336513577,15.715402026875907,-22.43873630595713,132.4845205597198,-8.293004472300499
691,23691,-0.5020594624826928,-0.9513841928954846,15.990836735462256,-29.809986041658618,152.87766002900293,-4.640695877544108
692,23692,-0.4313300666429593,-1.4941385415656534,15.474568675777594,-25.107704273322465,172.9367711177825,3.7905082474142726
693,23693,0.19695704832390049,-3.714757966653197,16.69683456251473,-19.163545874340574,196.0122951522663,21.918208705025194
694,23694,0.700122415322227,-4.222670630280765,18.677274626260974,-4.905653977112548,230.0932329368355,37.81472221317092
695,23695,0.9226210270549597,-2.8887712183931153,20.821628713750403,4.821056709342354,271.723292306836,44.403630545005335
696,23696,1.0791490331811875,-1.0764916630229238,22.29463216516223,10.549643699522914,322.4434890007813,43.47802438923544
697,23697,0.9171849616585238,1.052921498635568,24.24164792524375,18.019759303969504,380.9038036944105,24.98592108585289
698,23698,2.0396860060097257,1.5169496862165097,28.16985523875708,18.014806005200203,447.7738075711853,-0.0746169361920385
699,23699,2.908919798059683,1.558534373965256,32.21327669815832,14.604377678220505,517.4881432818963,-21.346911693869377
700,23700,2.594938052643075,1.0584360408445508,35.810746321423935,-6.689053041928782,579.5618833408972,-28.858244663739658
701,23701,-2.3756203170475003,0.5044558696352147,40.32504929891022,-43.70792378123003,628.3291112842078,-2.7847548382145813
702,23702,-4.5623232739291915,2.6536979825671763,42.89113417325005,5.623620853091129,654.0701193306676,-14.56294602675767
703,23703,-4.276872828304518,4.848843115657201,44.643679179939944,57.30207924099937,665.5676504883368,-28.26116289130131
704,23704,-2.4967131464603223,6.734787015115359,45.29727011520879,92.72711932990676,677.3278839285671,-70.72293252544917
705,23705,7.0867744431557576,9.451651459474952,49.92771483088128,97.73143270994139,686.9566711722683,-100.37512872952139
706,23706,8.579376514374509,18.606621793478297,30.542328315613226,191.05786159258676,603.5144962152679,-232.4852296976358
707,23707,30.99527585927568,22.499993457059606,-7.91317178975481,157.65764803552656,247.41134885376638,-285.8401790191151
708,23708,35.49603997478658,4.741230041671174,9.500132273149122,178.00097160983134,-86.60654569640862,-238.5627578253155
709,23709,36.75794323545801,-4.044251576312078,29.658485405634213,-41.74215046845065,-265.58603949725904,-130.2076641049258
710,23710,29.82562599956616,-2.964753609741677,30.128548566174345,-189.71371156458574,-300.6444812080833,-46.68514378412936
711,23711,23.201941247378063,4.628279768376575,16.77472766179852,-214.06646013577935,-295.80001472937846,-2.6251465383261148
712,23712,18.19841415577406,11.768495145049524,0.8973820831403777,-117.54319768507672,-320.28618097519694,3.7259290602730273
713,23713,15.021266760959595,13.323720370111635,-3.0765957574925813,36.996992135564014,-360.13808121234456,-9.955006142998078
714,23714,14.217726931249379,11.298494339355079,2.1339092799468977,135.00191462449558,-405.1655884823621,-26.345734220211433
715,23715,13.98936663947658,7.631744745579885,5.916855467546364,157.41083797934374,-447.9150580763124,-35.79760449651297
716,23716,13.463644717424343,5.6240008157640275,12.198041321803931,129.71419022896836,-483.67728161193537,-37.800511049768694
717,23717,11.978671808275207,3.409954865450374,15.42398262130743,92.47842979383779,-505.774422513005,-38.01575387503298
718,23718,9.622717623144139,3.0158897484313156,15.643216502204606,77.99656673202209,-508.25203272705556,-41.02001361372457
719,23719,6.723674177054942,3.354617895880341,14.792984039844825,91.37549958345463,-496.29630946692413,-47.83401705246158
720,23720,4.545726074545669,3.4341809979290985,14.065512064560934,120.22313099424636,-477.26915575001436,-56.18599832346103
721,23721,3.1187060208438786,3.2314521787321566,15.36073590403826,146.01975819355198,-455.1598382283738,-63.99923965816131
722,23722,2.3468787213338,1.8280389756329951,17.368076213993294,160.9074215561413,-434.7827411763868,-66.85907363946846
723,23723,2.7034193637421757,0.27015299597490944,19.422322036146205,163.95299332864172,-419.0049346201079,-62.42458976207416
724,23724,3.0604441565906093,-1.2496403851620668,21.555887126787706,158.51452700130542,-409.22184223990035,-51.8066383161684
725,23725,3.2227503242132927,-2.5251829577917713,23.372446379654072,150.21493004045047,-398.27801071843635,-36.72815700081656
726,23726,2.866474281264778,-3.5100777255310276,25.146962663574342,151.801933548999,-385.9039023617182,-17.588931686881008
727,23727,2.484589824253689,-4.05509837828007,26.09193637295013,160.81234958533844,-371.7845988883645,5.80413078757916
728,23728,0.9550909832006133,-4.930467840690043,28.452319105414606,172.78013326322434,-358.2760658323863,32.35345453963167
729,23729,-1.1766652070078,-5.518451058524491,31.28458964846905,172.53341908138844,-354.05133784681254,60.522161987472145
730,23730,-4.267240830387362,-5.569963620968885,34.310199724578645,152.72984146383754,-358.50671658521316,84.87143602318893
731,23731,-8.498798966261491,-4.814861391219346,34.956302378631726,130.7325389299685,-366.10158382789126,102.52303217214005
732,23732,-14.075084926223953,-3.3984506554119,32.86464612707946,130.69510232258713,-377.4583135152355,109.95753154556272
733,23733,-20.338003301328826,-2.1073941718088878,30.055197153260018,146.7912068407075,-388.8006341821826,104.71303676032417
734,23734,-26.004318906401153,-2.906366475646924,27.399678943257236,168.26893032511643,-385.6547226479122,97.4721973066839
735,23735,-31.134301193313792,-6.243045931405988,26.637326450684416,179.70212553870405,-351.84965939271405,97.62304842599917
736,23736,-35.64943597174347,-9.06217010470495,26.633453026295978,149.9026986833047,-287.7296788913575,107.81548208830372
737,23737,-41.23656910287384,-9.941334347950031,23.93858405903233,86.09754994891308,-212.14522209281793,119.4302350624716
738,23738,-48.126550368651195,-8.737432688536504,16.96849609693924,26.667077791863196,-148.40035333952406,122.24880164364986
739,23739,-51.63729021046819,-7.749380463686326,12.356558268897352,21.25417224013062,-98.53383748861968,113.26259808817025
740,23740,-55.36947315319821,-7.944674332309298,6.075848067133475,80.55851836220782,-43.073733711458594,104.45638565636031
741,23741,-52.730941548420994,-10.177920396538136,9.449542984923447,112.73619001144938,33.61828343812016,109.95594364772097
742,23742,-46.54624858580861,-10.385269571125782,16.616651762625647,74.24584305771447,110.23887457451644,128.38503402724908
743,23743,-38.90866624736799,-8.026240600388892,20.55904212813449,3.4531093973724243,159.5189609959216,147.17254526363405
744,23744,14.527293899933573,-17.69179335377975,50.501835802754165,326.5753272484739,354.5723454331441,-33.27871420116395
745,23745,3.4218691039930946,-7.364788438411631,32.81346467941322,307.59616305723915,343.6442429200758,61.13103688023086
746,23746,8.62082148374838,-5.926049191125406,12.037203985393342,-243.3409043049124,544.0148193081676,80.25303382551219
747,23747,-3.49090651504296,-14.500812832641124,8.037678458689776,-187.88394960492235,614.3447645960827,59.54143989311351
748,23748,-17.09879000609209,-14.715174269188704,10.948833061937028,-0.03242298387740762,525.5035086099982,31.90734940343243
749,23749,-16.29307393478676,-4.901398178635159,17.327618343223165,145.35264404856076,306.60447337825565,-6.711390935698652
750,23750,-11.453046719326535,-0.33556810612101706,17.261809683394674,115.20922973497845,205.4275185423988,-26.923837862568508
751,23751,-5.452681897701176,5.291638450634884,16.654439542508293,14.294907789160952,143.22893627411437,7.548813356377148
752,23752,-9.955052818678965,6.006611124117078,14.80495267284342,13.82454699905059,54.51955053126657,51.86869474270523
753,23753,-4.271285807780654,0.7638416731193498,9.994780834034913,-11.968702541191302,36.07490079313,3.2763316871618606
754,23754,-1.701327446102759,1.8065936975635721,10.452578047879303,-17.529322359106647,30.590029935727635,-0.5483707625475827
755,23755,-1.293924032854826,2.022838148463338,10.852137838186694,-51.078966352951525,21.389983326277484,7.408048076216717
756,23756,-1.3342986744616843,0.010678470059230288,9.458290913555919,-56.06340389651167,16.925877677684007,2.212370885432715
757,23757,-1.1062620894438622,-0.6575470413263063,9.219673727510994,-32.377259140239595,8.9956595476586,-2.759340754381116
758,23758,-0.44400815766511137,0.2069708870274066,10.217391942581646,-27.869332180953922,8.028189200423462,-0.9408617069889152
759,23759,-0.4865708286742027,0.055468191831670365,9.939411378652327,-34.40738098123827,13.030288938429912,0.7100717292388017
760,23760,-0.5393923646363552,-0.5994151246532061,9.342651203530265,-29.386994459182027,11.755104252279503,0.29092148557364
761,23761,-0.41584143283446917,-0.4872861568384983,9.42314331896766,-18.620575313139135,8.654308673047101,-0.1441179446404192
762,23762,-0.28784368924633863,-0.14342171547474375,9.702517925663678,-14.417102375044996,8.636065914102435,-0.9332401859156481
763,23763,-0.2534266136647503,-0.37965903925236644,9.780948204006206,-15.9194553982493,9.240591207616609,0.1913223536326006
764,23764,-0.44559142389468437,-0.01885909059434447,9.50401937193048,-13.646198900917565,6.42021341689074,1.5190936882237673
765,23765,-0.3661014672779897,-0.02422863971162207,9.742035631506598,-8.051281792223241,11.158880056419278,-1.8429412601188149
766,23766,0.20318900972980453,0.22436626956702543,10.261609449968809,-5.985078680014262,16.841946262848783,-1.1816056909418309
767,23767,-0.5052895153878777,-0.3540767351809344,11.639516770822622,-12.384357599610452,26.856964821806788,2.3063614428921695
768,23768,-0.8319271884642717,-0.42468314786599304,11.913978793905521,-23.673797404545276,33.724972466500795,0.4524943104762414
769,23769,-0.37586300997313665,-1.0192700325841855,14.76448082953144,-55.26246833374644,45.46777059845519,-18.82231011068789
770,23770,-1.7324693376781657,3.8776606668005327,10.34213854301128,-34.28273961937258,59.60847288654904,-0.6572618106566941
771,23771,-0.7840610259769143,1.4174556392193605,11.130302178196086,-42.97993395879975,68.68416954506958,-28.078193943405765
772,23772,-1.6268992666217668,1.4198438943177156,9.936977782522812,-47.4553935739,72.95336532371425,-28.099713636031243
773,23773,-0.9664613238706433,0.0074118692357583935,8.708860723797901,-46.07623550734742,72.16771685553356,-38.40513442679324
774,23774,-1.4615025370489012,-0.40573701700686887,8.703668490256545,-43.11405965576485,67.49519063559269,-37.38687824453701
775,23775,-1.4633955338393307,-0.5209233504051658,8.544863004697323,-38.86408298977302,62.94669614455472,-38.38190607076262
776,23776,-1.075940738003989,-1.0135133876770688,9.535060119827031,-38.253610061654356,62.57379362837902,-35.952777104604046
777,23777,-0.8922748587322146,-1.6885937717711366,10.008534163012776,-34.15021111744538,64.10235424875866,-31.209580270158163
778,23778,-0.7165779071226148,-2.78814396660722,10.084410172263322,-27.588901548754354,66.56269993971593,-24.658036887315973
779,23779,-0.36508209601476166,-3.04767656252389,11.273210128723408,-18.91134476837789,72.29087641421017,-14.662946563358725
780,23780,-0.38951092800659964,-1.789298843521092,13.890466338918582,-12.702237267315839,84.77074404212536,-7.789452305776322
781,23781,-0.9050138160582538,-1.121359204759424,14.958225334484547,-18.111138280628833,103.16981632777292,-5.386937609524154
782,23782,-0.4396981826917182,-1.6968667949432765,16.146528652073012,-19.83978032207543,123.82288905797581,-3.2762155361394703
783,23783,-0.45312807587617987,-2.2809753024494785,16.064872103435825,-23.520253711116638,146.60772198920696,3.922366684328791
784,23784,-0.19151190124748338,-3.1500711525964338,16.221461423941655,-22.507875684772717,167.79593678826504,11.955755838016588
785,23785,0.029301536367023075,-3.9815695120860313,16.61539500282092,-14.467350828360944,191.00954740720766,24.60898805864024
786,23786,0.6623576437439096,-4.030431400951548,19.034015158822402,-3.9166674677425526,220.2120111419999,38.81950926615044
787,23787,0.8152282233125515,-2.151506295806308,21.49675650623014,0.9684600189658369,259.7694557612011,46.02777712327065
788,23788,0.1542749752144958,1.2363147769648342,24.039121571168987,3.768237539406249,311.65325839420984,41.82609060734315
789,23789,0.9325424650587061,2.5312645382790886,27.968317955551054,7.467929423470444,376.1357199584759,18.815063235396952
790,23790,3.2645571861651783,1.2704488267946463,32.491658027111086,16.457044560689237,454.0496878453882,-3.7424827133735667
791,23791,4.088303489089461,2.0181267018651927,33.0150800767093,22.975746459983835,533.842741306307,-21.586697288906997
792,23792,1.3283555810220324,-1.992105227051026,39.8659589592927,32.46185935081095,603.1637507062794,-30.18311479202173
793,23793,-4.070281405866619,-2.2380936966129776,42.59742722974538,1.6402937310782422,650.3190400712548,-15.539978492922378
794,23794,-4.661841592484765,-1.2609522584001251,44.14087643355049,57.187129586582905,672.0422131363736,-4.070988822355744
795,23795,-0.7283348121162072,1.4696039807542904,46.67337509878893,87.46109725902117,681.4021580177857,-24.367694892166124
796,23796,8.663868336455522,7.129504526442809,47.15871966494127,91.51286518712112,671.515789579459,-44.6385690591005
797,23797,14.002066751740644,11.383518439242492,35.61706433347187,99.54795465128386,655.9766608590901,-77.73126092405782
798,23798,15.83615903838629,19.574458384260176,0.8732437969524548,198.95451755750938,549.1875504016442,-249.3453174789384
799,23799,24.33573634576978,8.82976960933153,4.7678162353958955,181.6787709179703,131.67383699419082,-253.0244343415641
800,23800,29.7342059800723,-1.1825437039066047,24.83157027033273,132.53467249177064,-113.44634767925982,-225.09561178596326
801,23801,27.265313785377998,-3.839235827989511,28.60286282791976,-64.58141271904606,-219.57066328780368,-145.70165311613513
802,23802,22.899515103199434,0.5329562562570451,17.3494422103419,-174.96756450795624,-244.33708456469734,-78.74891107292936
803,23803,19.585919938957,6.071660715667773,3.535570901468605,-170.01357745636315,-265.28816810181286,-32.26575208654165
804,23804,17.24969787252072,8.595462825877428,-2.169991263992471,-70.37476460997658,-301.4191673065762,-10.285955864555763
805,23805,16.19696435128861,7.539139826019225,0.9846026723481748,42.751190827789074,-343.50164687263236,-5.03018716348884
806,23806,15.486591303249305,4.450557445385221,6.745505287203034,101.0175095214731,-383.3775457308974,-3.5066750455282603
807,23807,14.74374227716089,1.3796507135868368,11.081386493811838,106.3764350179835,-417.254530637207,0.860370142880118
808,23808,13.601041909510027,-0.36060366187393206,12.886826617407959,87.69711036052009,-439.53599625801166,8.156927952517446
809,23809,12.82417202658555,-0.651129515744898,13.196786959741226,70.27999539972774,-449.7652820162563,15.862068836567193
810,23810,10.879453101139205,-0.7468594888946756,13.459729088530421,65.99180025033041,-452.7615536941935,18.96871964496007
811,23811,8.617740402220065,-0.5594600340199035,13.76117881792127,71.26927755988842,-454.2951389242844,15.757191789548068
812,23812,6.880552781948341,-0.27951105423706324,14.699983401377732,80.98967279658228,-456.5238913920683,6.935859230855491
813,23813,5.416782110404276,-0.36209742088964825,15.837123796859855,91.41457596353527,-457.57414413377103,-5.21915503944253
814,23814,4.6791249546060385,-0.35965263950006304,17.692169615955343,99.4594385313569,-460.68738011998164,-19.40219890580998
815,23815,3.861450086781246,-0.42711496820045064,19.071408318590994,105.50241363186012,-464.7957009593987,-34.43792997558467
816,23816,3.43374022481781,-0.9078022547081323,21.32244955366062,113.34668390608155,-470.618597553964,-46.057465278402404
817,23817,2.6874510752658836,-1.1457240562997952,23.730559920609668,118.25214275444755,-476.0050223209027,-56.72036019810617
818,23818,1.5239815500668918,-1.8797122970460352,26.331584256476116,124.80155918048236,-480.765833101873,-64.35618325684554
819,23819,0.10984219253227175,-2.8824108367875803,29.246371332325005,135.42662014313706,-482.65638382959634,-65.36991149686982
820,23820,-0.7228916875624825,-3.6115296767888414,30.504043429206106,144.80120707490187,-481.65157599167065,-59.16721479337552
821,23821,-2.349628623179686,-5.0003553545651425,33.653219729313,152.4794376493994,-475.8667139447622,-44.36167426845133
822,23822,-5.378724057708787,-5.799167594727265,36.99282636184644,147.9730489677053,-464.6558025823467,-22.246728360263468
823,23823,-11.161075699707848,-5.17391138639364,39.725171001821664,133.01916368279518,-448.3631483842672,-1.2189507281322232
824,23824,-18.87763894419925,-3.3881467956992757,38.728161371420626,110.01038470799854,-426.143759974459,9.600350968833434
825,23825,-25.6083520077898,-3.6144294475873133,33.45523638800592,106.06300766069477,-395.18216097993553,12.63072134575411
826,23826,-29.97746353966222,-6.646021292514611,27.83121855996318,128.47000280742205,-344.6599774789781,22.729366808224306
827,23827,-33.77809766924907,-10.850734785817693,24.145785809675164,151.21823841882087,-275.0933421012684,52.632723500877326
828,23828,-36.81392656771534,-15.30912125856496,19.989750797092192,130.34224082882506,-203.0730468151011,101.81243828122862
829,23829,-40.41694238696329,-16.57817882322125,15.051241021737397,85.23712520576998,-145.4369897404497,163.8004590896882
830,23830,-46.954224570068504,-13.691970621381476,10.109120154297026,30.19363220764268,-108.51064091731429,220.98829033659422
831,23831,-51.635519037042656,-8.487610450399334,8.712212581555406,8.758490109883272,-73.11116726142787,253.5599918757096
832,23832,-51.62132416987803,-6.148037376898402,8.880254486362832,25.256376498193273,-6.492143714094727,250.14341071527545
833,23833,-46.44259390778259,-3.5478211353850138,12.410492401044452,46.8804143428716,76.44776139444794,226.90128882259472
834,23834,-36.88193093119869,-3.5963623820208213,16.594025657834138,25.700379015163055,133.71250673677045,197.69447883246096
835,23835,-25.561193411497133,-5.186410209864657,17.4985312406451,-12.619299296323758,154.0732356377302,178.73573653797465
836,23836,21.5197853245751,-10.435120850572865,-15.635620654441205,543.4474670891259,471.0307431068957,12.415201696227836
837,23837,2.56711180702414,1.625944034302887,20.69348375530947,447.02850509091735,461.9395189086117,30.981445812145946
838,23838,1.5010261221253027,-4.7566701700998575,25.409258032407905,30.14496385371158,674.670496047309,-61.59743603956646
839,23839,-10.166095571797575,-8.603338491527794,19.730395605566734,5.856771735142272,697.2342349770922,12.327227524127185
840,23840,-18.04121985853712,0.02410619985701027,18.245874698204744,161.60554123309242,507.4824545168478,55.6068189669612
841,23841,-9.815100600965176,3.116551666092404,21.24552434688922,172.9952900406546,310.8462753756635,-21.348164266623524
842,23842,-2.2843269403254767,7.792929149231142,17.55783366095168,45.20058527615064,226.31888261418177,48.984675522834706
843,23843,-4.0827903852938725,3.9774365238034446,11.711251394119921,-46.56953532987996,93.05516542688041,-31.461922616124337
844,23844,-2.590560204193489,1.5753885644966763,9.33712463069208,-74.0293139907023,38.967256983881015,17.468439878465905
845,23845,-2.0148280107203678,4.110473074478164,11.251434363931127,-37.915202075960025,33.158268563388084,-6.5923233632969875
846,23846,-1.7030313250649345,3.705343279293053,11.64776367706935,-90.74912174656416,21.08753271480629,-0.8280294810337264
847,23847,-0.7165876204220548,0.5341392484466282,9.702279902347762,-117.45463728633169,17.397292647879468,-3.0023739384146353
848,23848,-1.2653292126168523,-0.7211760644640328,8.426698031568492,-97.91461777436103,15.377228098491225,7.548903013231462
849,23849,-0.801376572744761,-1.522059363352152,8.86205261855252,-71.6534608889279,8.361748680897438,3.527010258197715
850,23850,-0.8693318808535507,-0.8623016056137491,9.378821523983314,-47.33620703480961,6.8121835582187185,3.2586318810128683
851,23851,-0.6066868545397591,0.061705439837649596,9.74069162910124,-26.71753361198334,9.099665377475226,-1.1088997611615896
852,23852,-1.2240445730487322,-0.5352149220870615,9.100607143612585,-40.12683915548306,7.311625740491183,2.715406749046141
853,23853,-0.6634274468782986,-0.7496366909890233,9.18283981960428,-22.699155875939187,-0.9570531210899896,-6.6150191669535605
854,23854,-0.49938350862307895,-0.5644615696082197,9.580554761760183,-20.67079857473168,-3.3436677050312573,-3.6297358625480127
855,23855,-0.6897447798883115,0.022622625589037694,9.977422340382354,-3.628038153049242,-2.797432417125209,-4.386557299078554
856,23856,-0.7124505391966666,0.8765183662191289,10.455729478698327,-13.953890858222207,0.7522879715497045,-8.703392098055133
857,23857,-0.48459062194417285,0.24502264660224912,10.415160041001814,-27.820890807339104,5.3053527722089635,-13.478644339877766
858,23858,-0.509717133452815,0.9084553946267931,10.496870836874848,-32.19908886375974,11.525280639012053,-17.787470555771694
859,23859,-1.8338637071889892,1.5275577303049293,11.321245976992284,-39.03494139321789,18.611448297156958,-17.295703007640277
860,23860,-2.0304317242353678,1.6938062661000453,11.00390624205307,-43.71594472374744,26.586562983001933,-37.009383295253386
861,23861,-1.6475744705719098,1.944080046864866,8.553702865796584,-43.81130184941824,29.52911222785555,-55.44560125769882
862,23862,-1.2840264577230929,0.17808057736691663,8.351105879120695,-27.07362962844459,27.752515935211893,-60.6065366722209
863,23863,-0.622288320168632,-2.5404274030536893,8.661229405294241,-33.27468024445686,24.72161143669583,-52.88272681984888
864,23864,0.2653900787132728,-4.363067859305619,8.501677079056709,-45.896388266388904,21.009731133654334,-39.75876907940471
865,23865,-0.13606597068618834,-4.567047049433309,7.033560970010956,-39.73417276216068,13.159542623149825,-22.394217911982143
866,23866,-0.43764739635836075,-3.6957206936451987,6.79753967967034,-18.966036645446582,4.726353329522468,-11.555687362278672
867,23867,-0.5500583722666714,-3.302651964500829,6.877522535612594,1.382303332237661,-1.8783031813762892,-4.242500769143284
868,23868,-0.5035788927673203,-2.8092244204500765,7.948528835845755,19.162476176601903,-4.416929325533302,4.232778699792336
869,23869,-0.9317101064797055,-1.796552641435952,9.33495894813277,24.730098352092703,-5.380116651808362,7.319950063559373
870,23870,-0.9566185931393464,-0.9471995899807033,10.209027685981473,21.5532607581488,-3.000372965935054,7.946157611355322
871,23871,-0.9869444403514741,-0.22030117460350054,11.55750949752332,13.561122892790172,2.771739030620101,5.412106386450646
872,23872,-0.8986961708439453,0.4971801103453331,13.381744178289159,-10.179782568440151,14.141778512616257,2.2957591230225236
873,23873,-0.6212752036864277,0.5509377341372061,14.690048903408929,-34.376991296151445,30.598787692554897,-3.3479948791360763
874,23874,-0.38624023977267286,0.41646287096468637,15.522325316250967,-53.35258315708539,50.603543741621365,-8.89423172656771
875,23875,-1.2301628982579882,2.0963134193456145,14.415052379583845,-69.93830568383937,66.24054172935453,-20.179779731461736
876,23876,0.986395648968561,-3.92809215459016,19.392938643573913,-23.06965101288334,104.63904995507222,-42.5103287910525
877,23877,0.6695518841264777,-2.0391429411504136,18.96309756667181,-38.29189246019149,150.31636457303838,-26.314514092395477
878,23878,2.157831538444692,-2.001125231613896,28.27495659587424,-33.09049916837066,205.4701030463374,-21.45214264578775
879,23879,1.516664449065594,-1.560955162982717,29.142994150396863,-38.43023672224887,275.16819475372426,-23.617725194335076
880,23880,2.7172007508271916,-1.031108285569161,33.90319401994949,-50.741634987874,357.42157002533304,-19.80177351586948
881,23881,4.254989174035028,-0.18619999223193934,37.4796818789862,-50.88325234331305,451.55574321862315,-20.294382480907924
882,23882,7.658824858321924,-0.7698267650006407,41.182198564138524,-37.61752482787316,557.1324926479566,-20.32772746357227
883,23883,9.779305781955106,-0.4276613571572513,39.377906488376915,23.74500471083715,651.7014990972917,-25.914733828579333
884,23884,5.806005922536148,-2.821784813412729,38.23179630881316,115.14938738068753,693.5665847971062,-13.946137037973342
885,23885,3.3141809521399765,-4.068637362243368,45.01677447045627,163.9107074762423,655.5848256358762,-24.045986402402562
886,23886,4.720089436694714,-3.130470160385896,51.007069982604015,49.908069499985594,613.7469295287842,-23.396630146863608
887,23887,18.963732452491232,0.7547745528882958,36.122887033619925,-164.55286234232344,508.9508387209053,-56.976914828449466
888,23888,17.103991821937633,5.5604696727416805,4.109650426414385,-393.5344139377583,254.12403140654368,-71.07551417586399
889,23889,17.911657004565242,3.296990037373338,1.810422779859129,-214.4668881235753,2.076381692819164,-56.79752009288418
890,23890,13.669190109464395,3.20306150348997,8.35031394523722,-196.4470592040636,-99.13234071375781,-44.7503537793275
891,23891,11.019559101501027,0.17838784647037534,14.058217203583265,-228.16927946189958,-83.94201041185819,-27.75481646262633
892,23892,10.286419021593451,-1.1927974150887055,16.540918031487855,-331.6945695127462,-92.5547534784066,11.314336293376936
893,23893,11.311827799737886,0.1514835745927573,12.199928286695087,-385.3999812166035,-149.0757726415837,58.848317978348064
894,23894,10.360405212094324,3.5803823978324045,8.684736730775258,-384.5207866387711,-204.8411238036861,95.57542234966225
895,23895,8.182133169952497,7.463804428184904,9.793569774525636,-378.88449678174834,-253.34232861478839,117.1874395205737
896,23896,6.9697514518683015,9.553674900349433,11.376795299729363,-388.3528507367011,-296.4846644669869,130.79309407845412
897,23897,6.230436269963813,11.30658728964142,13.753564234481088,-401.9543184808358,-339.8535127611182,143.52962975347694
898,23898,5.0169967931737744,13.431370477904666,15.693142147846315,-425.9932914958311,-380.60460469991216,151.2376529716657
899,23899,3.7341518048409004,15.91616759382977,17.079597059247625,-439.1898883315449,-419.8823554937959,154.7885288924514
900,23900,2.337927539719601,18.717848241857023,18.387396289614017,-450.9560140015218,-456.49261455167544,151.42817640849825
901,23901,0.9314444096452406,21.016148268595135,19.376415908787667,-448.5675934050356,-487.9307203245243,140.8289135365398
902,23902,-0.17195899058084765,22.40911776128139,20.165952110233892,-443.7962545150696,-512.7023280444523,121.01392907884403
903,23903,-2.647559260209109,25.752597774869706,21.547523444010896,-445.6093319840122,-530.742465050871,92.97302933658098
904,23904,-2.8988492754213824,28.285593841322274,19.260553676545904,-406.3322938390574,-532.7130333249161,72.89039137822444
905,23905,-2.158178565435763,29.894874341275184,16.422669100554113,-318.1850359248804,-521.9438604316443,74.79118339886138
906,23906,-0.9316914380126662,30.255674855752527,15.522476405296482,-214.95025587676955,-512.3231728025567,99.39257670531711
907,23907,0.5147893086443343,28.9196585566255,18.931030853997456,-134.1201549936484,-507.53339425238215,148.04048036000805
908,23908,0.7144543158003696,28.23001641557063,23.956209890319847,-107.42977353818706,-501.9133007063307,210.23938535117514
909,23909,-0.10861871885560169,29.534367054148973,24.866098223959483,-89.62281483746618,-494.94894125960553,270.58020209015245
910,23910,-2.0433501224671304,33.04119655322534,24.114860163655052,-47.793943079459304,-486.0676868097891,318.51025103965674
911,23911,-3.385998079822909,36.01709334232254,23.72183196028713,11.379594202926999,-471.5153662695778,352.41901904650047
912,23912,-4.4014561974439435,37.68178966064142,24.394367621804314,66.04119242457895,-446.91493091630866,376.0809372679331
913,23913,-5.21820636935842,37.65332846829711,25.773773273022012,107.7630435726325,-418.8750735639151,387.9717184585571
914,23914,-5.392821151013686,37.26088240436384,26.443779906694253,131.3872820771855,-394.56884193698403,391.5377272731762
915,23915,-5.821715090820111,36.33262358287001,26.911890560882096,143.57837178985267,-377.4517917303263,387.2549774069101
916,23916,-5.890169247318009,35.089089069704094,26.62923543665557,158.2395294595613,-364.48443019338777,376.92775921319605
917,23917,-5.885913801246146,33.49235466263858,26.30606091509387,174.48365193813694,-355.5425844123703,361.8069080309365
918,23918,-5.448951762652378,31.41170216667964,26.102687639618118,187.37261797882718,-346.39574125215955,342.97147232014885
919,23919,-5.174184270493203,29.22387682205204,25.50193331915055,201.3373643103464,-334.19443218219504,321.398315550315
920,23920,-4.788109413987486,26.826177438205878,25.851011044436028,214.5480385782212,-324.44440222652975,297.93342741739036
921,23921,-4.778017503500313,24.044004636209827,26.749968673892734,218.2913223345727,-316.96277488066585,273.41610559155134
922,23922,-5.294258706397513,21.313930131792915,28.001643242443812,213.36854099279117,-307.0186950842283,250.54783479037792
923,23923,-6.487974823159702,18.959610651873284,29.052185499686825,202.44677137884855,-292.3500911327462,233.23293665630965
924,23924,-7.754561475054091,15.696958616029358,24.51775618911083,188.88878810075593,-277.21150356818026,223.96902733851496
925,23925,-10.762607417372315,10.050837252162824,25.067002001944545,258.11955620177815,-250.5697644847844,226.25941219146077
926,23926,-12.766138125844156,6.670355564068986,29.353135363586233,259.10643858654186,-221.64935964747278,230.55447907402055
927,23927,-16.82668711448256,2.204497210671388,35.40137191783393,160.27490925709643,-203.16857334680162,233.9449374845753
928,23928,-22.606934163001668,3.1042153223988858,31.32717213882822,90.11856397122563,-182.0842542933543,223.43715250834086
929,23929,-28.84063551998337,6.802919226577902,26.153057781388796,90.49267452177467,-152.84018325315122,195.46403595291827
930,23930,-33.29936906541104,9.314215517027108,24.11336974673154,84.16385190900887,-113.2809881957973,159.43489960157518
931,23931,-35.01924010166108,9.370217585405705,20.77678041516025,85.6954469636644,-71.81326282708507,129.567836700189
932,23932,-34.097491219069866,6.828401285373805,18.595951558175237,100.4962256910313,-31.990050937228226,119.28118992456247
933,23933,-31.690039871150898,2.5016751834225515,18.04102621893765,109.40904541896757,6.6101907521543435,130.0532431568143
934,23934,-28.525606706915074,-0.5264418542732703,17.81342010982403,101.08013049623796,48.127949781280805,157.13053581988348
935,23935,-33.78592229468508,-12.276448621580604,19.231997929351728,-23.673000276863817,247.29094634292264,191.45834995075091
936,23936,-19.883999164851126,-4.688387410159177,9.110184739354079,3.289313357968849,267.4473490000299,313.8689827384578
937,23937,-10.89730467372813,-4.8734259729488505,6.520998203718272,53.89076755563831,213.24427957458101,337.35261948222416
938,23938,-4.587789176032365,-5.029749360338155,5.614962702227278,181.65988772678705,155.06044179691457,333.9807340675722
939,23939,-8.746622289632747,-5.343066429105959,10.65051739774523,192.38716742596483,195.25921939238083,274.01810830455776
940,23940,-10.2760548734763,-1.8944543825237015,17.10538354672912,109.65171204711197,239.1241391570889,168.89026490122262
941,23941,-11.774327582655424,-2.0006375812841655,17.015216385149508,48.99912903407417,208.76421303929422,63.51652130477606
942,23942,-9.443207846062254,-0.15309792133304426,12.725088878162307,54.70150743698424,149.53376071821756,-8.369072795706261
943,23943,-3.9303438942376654,1.976771772520208,12.139473025562934,76.21712599954772,91.0297271443447,-12.810531323691556
944,23944,-2.08887844342221,2.9666797515160743,12.473174163675093,54.74802195625872,50.859647380290674,6.467257467382124
945,23945,-1.751510205015623,1.5280936771149471,11.044772157175856,22.758042268291042,36.312487414547576,11.434561436214098
946,23946,-1.847071079752195,0.7584374572029915,10.36807916647288,28.56714115821113,29.93287293263567,-12.24072860503186
947,23947,0.12098326830101906,2.0151161426854243,10.901668694210423,35.6554065256438,23.33275082368077,-25.221954424420876
948,23948,0.2593270867818112,2.936729326710601,11.816766088889446,9.213798391669918,7.509952193602844,-6.056388473570871
949,23949,0.20342398041398588,2.090020210867724,10.942138051184264,-21.26782776710383,8.252834145068832,4.003814371924874
950,23950,0.0241007571536754,1.2427343092685625,10.462432663227087,-20.431479716818213,17.657339564964513,-3.494060800949997
951,23951,-0.06432867589143614,0.9329148851148259,10.500113934667533,-18.211136136416755,19.480585642028462,-4.569249504941821
952,23952,0.018552581691787858,1.0087274911320945,10.46143097173483,-24.53305622735954,21.80331635227332,-0.9646783931036094
953,23953,0.09984832515931152,1.044176154040832,10.541309540079899,-33.20863571996887,28.03400855481535,-2.4285194472496645
954,23954,-0.019255794856329802,1.163782659775171,10.659699915901125,-37.5681976585326,33.71205535926292,-4.161158257106996
955,23955,-0.18325612814174916,1.0157915990805084,10.420456562140355,-42.35451541848402,35.72679995390325,-4.319442128618382
956,23956,-0.2832202096947657,0.05158396630564645,9.703352668573892,-45.923005944376705,32.757566769973096,-6.73154304269063
957,23957,-0.23185112505278554,0.5921894872271946,10.062155038230188,-29.47063676115496,32.281395884692145,-10.630189173252912
958,23958,-0.27247719430164724,0.5930571861158962,10.101451548255218,-38.05354924871568,33.558118472823246,-6.468885092932966
959,23959,-0.48705497911426016,0.01737559331056092,9.860092110163738,-42.51240406095458,33.94430254225949,-3.777085341423861
960,23960,-0.48577919555941623,0.16838318064254593,10.296097663977909,-35.044223266752574,37.67870273819501,-1.0480127474004943
961,23961,0.8650726601427188,-0.517389856411943,11.767252502496488,-39.28012309115366,45.48448525802318,-3.6900242873524256
962,23962,0.8065025914597885,-2.4928857335949655,13.97517003077761,-55.533172128791385,61.19084236738262,4.1222895041799035
963,23963,0.3111862611459656,-2.016342776875117,18.0107528784391,-79.46605260478239,70.86639906953428,1.7939933220918174
964,23964,-1.947642172363999,2.0661828197714724,12.312148306187979,34.995197914922116,83.45804526227431,-25.885803351339415
965,23965,-0.07324598895748724,-0.6538915963136017,12.709980598697328,-20.03297735176756,97.97638397088261,-0.08903183220805551
966,23966,-0.277870143605641,-0.9864809926327829,11.67809965303265,-3.5540519155716375,107.7950278430074,-2.6784454262909625
967,23967,-0.5885801635344842,-2.4442795252434655,10.363784778959337,5.011676252556737,114.93485552107686,-1.887014246932765
968,23968,-0.8837300749181274,-1.5225953101621703,9.138526438368947,18.102037480177167,112.73789473527434,8.786485708854936
969,23969,-0.6634857497971516,-2.652020424058379,8.30426347004042,29.199908648477592,110.38984606795317,11.581594084323656
970,23970,-1.132809897365802,-2.1218737350753845,7.66985944321573,40.065420521126114,105.92925828322119,20.841520298716276
971,23971,-1.636289490697239,-1.1323853581979222,7.907854668419313,49.24458358352827,99.28061989374542,27.158426689845655
