,left_sensor,left_sensor,left_sensor,left_sensor,left_sensor,left_sensor,right_sensor,right_sensor,right_sensor,right_sensor,right_sensor,right_sensor
,acc_x,acc_y,acc_z,gyr_x,gyr_y,gyr_z,acc_x,acc_y,acc_z,gyr_x,gyr_y,gyr_z
0.0,-7.492718317537606,0.8828021952791438,5.886180560877654,5.464117937827713,7.592777171171112,5.588236053698944,-7.048681667485394,0.5975280758103457,6.213115808941064,-1.8308722294840964,9.62389663522132,-4.1905580170105425
0.0048828125,-7.61753093203357,0.9694358094164781,5.893251473076673,5.952071490915595,9.042147733231454,5.418509457081079,-7.0532498427897625,0.5399545329447065,6.21259823292978,-2.0082151497249203,8.959202936362498,-4.315250131601901
0.009765625,-7.7272355866047215,0.9450613257528367,5.807098030079769,6.071954313964587,9.525371013234711,5.482927847233324,-7.011263241829576,0.7177393530066833,6.18553661033843,-1.7589045439548114,8.839150540194597,-4.077163961701045
0.0146484375,-8.004299208565198,0.9781524069775357,5.657017286749493,6.316745292692858,10.43114680824386,5.3072125237305485,-7.068469629752725,0.751199265488757,6.181874842647432,-1.997420257185814,8.413833529139048,-4.014515971290526
0.01953125,-7.856711166738496,0.8968775072943742,5.75363481133208,6.19613663920489,10.128955554438582,5.243240138864731,-7.072257149942386,0.6786252854150637,6.2708396469087715,-2.3581672514628975,7.987217074150036,-3.949069864039437
0.0244140625,-7.885986215644196,0.873025358758033,5.77678181107401,6.380480470827855,10.250096953307658,5.1862428476778355,-7.072637028274519,0.736346939905238,6.247831119073496,-2.1735143982106124,7.8684215094933805,-3.9544190691893375
0.029296875,-7.937185185937353,0.8867495158044828,5.644377479319013,6.315563741206887,9.948612452598315,5.488756054483217,-7.181788366923568,0.611505283729768,6.22437125214914,-2.3634316155708333,7.450254773029415,-4.750082239051743
0.0341796875,-7.975357261160038,0.9299621327944432,5.634193617450837,6.068799589959839,9.88774474084942,5.605576550894828,-7.376056884683746,0.4956154083774097,6.263409058995388,-2.2327644360036483,7.327264916172861,-4.264355335985021
0.0390625,-8.104432850526244,0.8142218831490823,5.524666104929691,6.0107581613256755,9.766836128651683,5.421531983499539,-7.052377452258869,0.5679322250573123,6.330816888934936,-2.5709664039810347,5.869086159491923,-3.474328646849809
0.0439453125,-8.136275443982473,0.7749365271436872,5.364613607136126,6.1356110076324635,8.862191483855737,5.482748477410749,-7.071342872594926,0.5630535204154451,6.33572549093173,-2.330723706802274,5.993679034998643,-3.662346345686159
0.048828125,-8.389290271343311,0.9860769129166931,5.279867928287701,6.4378588854390015,7.958562263774412,5.973652055291374,-7.238096038122436,0.5341901882510635,6.285643449948203,-2.0215323102215916,6.054969279074124,-3.362664566166022
0.0537109375,-8.494872705969556,1.1978281055751325,5.333647884493201,6.1332448012995595,6.449456728668834,6.207641746930814,-7.137771465941439,0.5197082894721479,6.336130740043089,-1.7646951391807224,4.971285655032449,-3.3787613962480454
0.05859375,-8.494761739377772,1.2603440810941653,5.347459181989159,5.16838047340132,4.756532515228202,5.575778714994641,-7.228331924759301,0.5627066212398542,6.328267189355836,-1.3966124097074388,4.91431282538225,-3.326492108937321
0.0634765625,-8.456345524204815,1.3469662433235656,5.3852440834863655,4.453169681907327,3.1242495442321747,4.6444359802749755,-7.209700786434431,0.6587558236245097,6.319555698145891,-1.3826772383121366,4.2473176346785175,-2.904482750920975
0.068359375,-8.328062065839978,1.3427414006527902,5.514099169697583,3.4248388795816296,1.4915516144184193,4.1332653688017835,-7.200593385974873,0.6878181946951978,6.281987087055796,-1.4314757286977646,3.3406604969952545,-2.789467451427514
0.0732421875,-8.334339418022724,1.2567707445459135,5.598961829661124,2.395778428806013,0.5829303353145711,3.5020588402811477,-7.209785012926176,0.6253390943767132,6.295632862435665,-1.4259060316459036,2.8579476904577623,-2.7941474928603633
0.078125,-8.296900367826417,1.1705703014108628,5.65161424143565,1.7971310014210995,-0.20398849309402609,2.757751425225464,-7.185685897024067,0.6203477172970941,6.33302290970363,-1.4743670463116416,2.071027428523566,-2.5555367606843227
0.0830078125,-8.22957910445659,1.1368277514674205,5.643412942055038,1.194281751966895,-0.869983650520498,2.257219269550698,-7.1571806354252265,0.6634969390295206,6.347248304608167,-1.406431176065728,1.7082038389583099,-2.376817702481787
0.087890625,-8.138120084936855,1.2233421495723573,5.672622337083974,0.7133293267515739,-1.5959795121264473,1.819774749770786,-7.190292702499234,0.5628062884362726,6.327788136604246,-1.34085264993696,1.1667267283510403,-2.5058865295258124
0.0927734375,-8.1138417755868,1.4253527889190156,5.728455279942427,0.29265662385192087,-2.020104873044037,1.384193271412786,-7.313476968471018,0.43773457303324037,6.332811096990346,-1.2656721616018658,0.5603439850359437,-2.0234452855013583
0.09765625,-8.061317308441032,1.4158505928644678,5.757500263435822,-0.1902213745458151,-1.9616806291007565,0.8877171996669805,-7.3279273187480936,0.44741916793153463,6.314218196353991,-1.245386513457945,-0.3498335081170296,-1.3589242420072214
0.1025390625,-8.004662501849667,1.2333887799918488,5.778001335033255,-0.6715277707110934,-1.8429918502346696,0.2696807568290859,-7.318173881039486,0.2654563432980552,6.269815043623278,-1.0450704982188486,-1.1365256089685096,-0.8197732930114193
0.107421875,-8.009577390729783,1.1853126882540697,5.7687481040039765,-0.9726939456079005,-1.7235316999654482,-0.10128205238588572,-7.208100213344241,0.2603680773622025,6.353299193081183,-0.6590905440062468,-1.9826925767784631,-0.162989517158582
0.1123046875,-7.937274550938001,1.1755528799797383,5.755816295253608,-1.0895786445581117,-1.724310307556012,-0.4689552026117264,-7.113927200611741,0.5101449533874106,6.340452286227242,-0.4011391940989462,-2.467139545674364,0.377623503354617
0.1171875,-7.841292782771952,1.1226218463194202,5.757542201228439,-1.2685074121584559,-1.7855339180992327,-0.7770767910911679,-7.089751909916625,0.5529284626672923,6.406626730694844,-0.21138729474857565,-2.6486154780179376,0.6777388819400197
0.1220703125,-7.870367903535598,1.1034933168021843,5.766576128394024,-1.263470294755001,-1.6048902063945485,-1.1419205883494503,-7.142193715035645,0.5002840048835107,6.369018515385338,-0.26729562055910333,-2.7118530689443734,0.9846021747021433
0.126953125,-7.869731085417688,1.1128349426241422,5.719561293623384,-1.38309399811194,-1.3641263842216045,-1.387272660545952,-7.133605152968234,0.5823997294248024,6.289524466640459,0.0448181143592565,-3.1320182483859806,1.0959669280085607
0.1318359375,-7.889242842379806,1.0937228237943633,5.733441272891765,-1.3787910085597725,-1.2437634262008306,-1.6913789004950384,-7.105246903128146,0.6352388072493625,6.289694513214895,-0.008309890929225941,-3.4366817022888574,1.4004710379802787
0.13671875,-7.941811857542441,1.1706230327114293,5.732277548744903,-1.313655757160633,-1.2438556158963772,-1.9337131585500196,-7.100469473572311,0.6639354658675058,6.304074951687867,0.05733971544593755,-3.678345533177424,1.5191515476550743
0.1416015625,-7.921929830904575,1.1799446738001735,5.685560473370882,-1.3117541973881781,-1.2439968533526997,-2.0554728235243465,-7.11001094315798,0.6974236203306501,6.313965959321687,0.18368807214766472,-4.039126036314661,1.5128465590707278
0.146484375,-7.898213936080288,1.1704460517913824,5.70946164536486,-1.3060709078305563,-1.2444150588491312,-2.420746573615202,-7.110001805910654,0.6352263488498102,6.289754394808845,0.06560193670258309,-4.1624439948338905,1.6980993598844756
0.1513671875,-7.969754096995599,1.2039295673774948,5.6706167808514465,-1.1754477502760432,-1.36525471372921,-2.9056556801796996,-7.147334919526138,0.5005926865321334,6.321906426098272,0.2493065646714533,-4.280749019322419,1.6315682861118679
0.15625,-8.040191030450515,1.309112265980218,5.570385344636427,-1.293909602326193,-1.4261719939577695,-3.1517203813443375,-7.137815976713796,0.4384203318503981,6.297575098397531,0.37673504261695256,-4.582118824110257,1.7482969237526151
0.1611328125,-8.031042349858142,1.309313498046118,5.608111603570633,-1.4077123059500398,-1.4874646691377733,-3.702165935474375,-7.194966545520082,0.39529270173511033,6.269557401792382,0.506537651929009,-4.704735835416575,2.1728246460080043
0.166015625,-8.051213198946602,1.3145587598256403,5.682947047282922,-1.5203408180718547,-1.6091548833908145,-4.313629270498736,-7.175435604922342,0.3327277817898522,6.306429873049066,0.6404811855950652,-5.189453297395252,2.5938430757440254
0.1708984375,-8.031523720609131,1.3335916694932293,5.654975550801079,-1.878679559101379,-2.093439253062804,-4.808962902637151,-7.160559779992187,0.29877037565399756,6.3672369401428215,0.7758859280518428,-5.495002094307765,3.2614540147650475
0.17578125,-8.04133129160266,1.2422423141989662,5.636447533379635,-2.35947970408518,-2.0954133206437766,-5.4272947385621615,-7.179332592248546,0.3176506581726107,6.405406529091841,0.7271928495565756,-5.801949056669353,3.8720078645666387
0.1806640625,-8.037245634657392,1.213684379468523,5.68362302945097,-2.657219284372512,-2.3984950386435013,-5.9210010565234255,-7.141399580479255,0.2317298387180739,6.356889319051387,0.8011781854263649,-6.227880551860356,4.417439121586074
0.185546875,-8.037201019398795,1.10778453199345,5.641822695794055,-2.772033704661889,-2.459664199056792,-6.410525140383546,-7.084108423290067,0.20776709829922865,6.374798920940894,1.0536044210989646,-6.469544594909846,4.7768133652541005
0.1904296875,-7.941929935008963,0.9396648311442276,5.658157447691586,-2.768009554428853,-2.821916196909407,-6.593955744465087,-7.027030862546702,0.404037699604422,6.456245672462446,1.2427438039686252,-6.290862593839874,5.32526056302301
0.1953125,-7.904313230679034,0.8918870134595419,5.710637416563031,-2.831307535517973,-3.0632637243750143,-6.413068070161604,-6.9184986921790195,0.577232294226108,6.423580389000609,1.3026485732628061,-6.109756145209124,5.38682419513865
0.2001953125,-7.908724609283184,0.8628374130685015,5.668417757250803,-2.9565938997021513,-3.365015242443014,-6.172630836047439,-6.975587018492592,0.514917635955458,6.3953702065270495,1.1739567115686798,-5.927633238700404,5.085315243909882
0.205078125,-7.937836696496848,0.8100362801740701,5.668208227147608,-2.899001981209297,-3.6661792878107735,-5.867714276178055,-6.946927236210557,0.5579384016686144,6.428464389783992,1.1736292784226467,-5.747564241744635,5.2094872709842655
0.2099609375,-7.893720370591955,0.780751896571553,5.593852759495518,-2.964481874186993,-4.088335177232743,-5.504605668752344,-6.93329029061743,0.6446064296097589,6.386696157617078,1.2327687326399839,-5.80589687553937,5.023868282265898
0.21484375,-7.836177226090755,0.7519013763382029,5.599572542267174,-2.914268590545117,-4.449368656331835,-4.712821482625257,-6.900501739984399,0.702511634911252,6.349116867359856,1.229929194224626,-5.864407336096567,4.778435887891083
0.2197265625,-7.870115576842913,0.7857409682688388,5.631780782614304,-2.9224302410870924,-4.810738995648259,-4.104879300643434,-6.928961405262294,0.6928112564314395,6.354097111077445,1.2236443874854916,-5.32132730983472,4.783709817121903
0.224609375,-7.812935322175802,0.7811158133744731,5.674970167807431,-2.9889862721222835,-4.9312295666306944,-3.74109425845044,-6.905196028597079,0.7550708199100408,6.378009267620545,1.1002085504704153,-5.441898258876315,4.601671348102028
0.2294921875,-7.8273174351907056,0.8051713458849244,5.679336243850028,-2.7510090110277146,-5.0507024832278375,-3.2495604091839145,-6.815650177015892,0.8229438381175652,6.306787261553431,0.8489988718452595,-5.380888572667437,4.179345035806528
0.234375,-7.84605175359304,0.8386527095628268,5.650704562486293,-2.8149739213259637,-5.352300503562491,-3.0079454058197594,-7.066904520103247,0.5537614907806738,6.293114592610662,0.5962340226197733,-4.958981941134621,3.944183287592448
0.2392578125,-7.731061671499106,0.7473054687729941,5.65759784316531,-2.7566228370030808,-5.351975045447642,-2.824100071508154,-6.923823910276179,0.5155042744179784,6.328670749760191,0.8521266583594029,-5.502406986415437,4.300639591610241
0.244140625,-7.803127549457084,0.7569596648310718,5.651740962297731,-2.5815226038153853,-5.290483291746018,-2.2724531611165086,-6.819204287857878,0.6784185024612632,6.395030243808231,1.027202240643815,-5.2564754587702955,3.9315282162421075
0.2490234375,-7.8031349965404715,0.7810266118456765,5.661027530292279,-2.402197633821016,-5.3499946328401355,-1.9646158937953613,-6.91003407232274,0.6738025178935565,6.334796310480833,1.0824748131326953,-5.13278390956962,3.6252524791150345
0.25390625,-7.783608412653309,0.7905066712588009,5.642493489345181,-2.164452802760086,-5.4091392949718795,-1.4729414687068394,-6.872264175709675,0.6262878687545617,6.281946875089099,0.9601392154668946,-5.193934651664331,3.5662541753084227
0.2587890625,-7.755340451541267,0.814807671714219,5.69919842047953,-2.106527772427906,-5.529421452851906,-1.228524917665994,-6.933441554654856,0.5012175425216221,6.309777360194374,0.9579458780774786,-5.312719625394221,3.320253140657617
0.263671875,-7.72657622551146,0.7666966066933163,5.690466268394335,-2.0514130709032172,-5.40817035828111,-0.8617654833735894,-6.852231585665848,0.5872250239312439,6.3898179100028205,1.2638740753921418,-5.130017072640989,3.4986846735602093
0.2685546875,-7.745465991280713,0.7665581731021497,5.661985474570793,-1.627631378685156,-5.285959771511444,-0.5487070877216529,-6.81478900491382,0.6643618297924689,6.3476540269319575,1.3146787415765901,-5.00410735205409,2.886355232065385
0.2734375,-7.803060996398706,0.8098699839875134,5.665595370519457,-1.507663733272829,-5.345741935347752,-0.3638215055660312,-6.748323409719394,0.7794336182846521,6.38099097944385,1.6721117688663412,-4.755796223219196,2.4518739530725804
0.2783203125,-7.79361604627235,0.7714373661705419,5.665916693120846,-1.327945627123961,-5.525917870630912,-0.056242504682539655,-6.866597709451179,0.6303263480773345,6.395147845076692,1.4199103748072854,-4.154358243830125,2.4020944903433663
0.283203125,-7.7648816085760926,0.8195940892080578,5.694330813013848,-1.0867365489411065,-5.223380715756479,0.13185608754026334,-6.8291089896039106,0.7169924400066058,6.362514599116238,1.181353802597928,-4.039917084499289,2.898499269712571
0.2880859375,-7.736502479147077,0.7909055613448444,5.72308981871301,-1.1510245094313087,-4.921724853912719,0.2531145243506807,-6.82370488284227,0.7068975602513968,6.43783362799771,1.1148905716518431,-4.037782337918869,2.5326193942225306
0.29296875,-7.76089967286441,0.8199587357816412,5.760165666525823,-1.153632723869713,-4.981865764286375,0.43560226818932063,-6.914797026803986,0.6881482166057085,6.339717753564193,1.3506205559217008,-3.6708407043195472,2.2245285143830142
0.2978515625,-7.727464899629947,0.8055944871168212,5.774842928772022,-1.216094778078717,-4.921645330756184,0.4954210542122576,-6.838527602527037,0.783865209712729,6.401045639548386,1.4121783167112976,-3.7904951389305945,2.1607411725028607
0.302734375,-7.679440907122058,0.9018387163962696,5.817430771646256,-1.1565830599511089,-4.680118523279407,0.5580109584220804,-6.785728988623505,0.774023369972313,6.456897064137963,1.5271701436394682,-3.7855812708509147,1.668281670633545
0.3076171875,-7.6743704363915635,0.9065309361780085,5.798694966514578,-1.2198138600782984,-4.137221428475534,0.5580650545289203,-6.776374246515977,0.7980962999752557,6.447583514109375,1.335877803050391,-3.2434862447605375,1.5553011765322209
0.3125,-7.722231668932606,0.8968432263781341,5.774507816726364,-1.3436711496549398,-3.7754749683245703,0.5565175878282017,-6.791152455428388,0.9563519070583376,6.449351167305609,1.3878367705470553,-2.758285096104554,1.3137247123887976
0.3173828125,-7.70816051789327,0.8440499339420993,5.784362590074537,-1.2816959637241605,-3.7150259339795193,0.4969902621860694,-6.771862975877059,0.9800964998073918,6.491807022058243,1.1967589525019393,-2.6961483817486354,0.8287861389200946
0.322265625,-7.665266034849136,0.8201228426562079,5.808626187553791,-1.2835379445938546,-3.4736197267573647,0.5584249448906593,-6.781696297883053,0.9372861377165324,6.434887326984996,0.8169043287609312,-2.1531396146734614,0.352724550463693
0.3271484375,-7.62830842264555,0.7967024055808236,5.922061620869144,-1.2257019747382858,-3.050968997161655,0.6823469214763258,-6.824436774905947,0.9562646982614714,6.449770338463251,0.6253436229952412,-1.970738880244024,-0.06983588655815019
0.33203125,-7.628848966613262,0.7825051454694436,5.959703666193695,-1.0438270392941909,-2.5073997750444774,0.687193543979312,-6.76720143683362,1.0088895004399876,6.49203586926691,0.6778785322874347,-1.8457773693051216,-0.5597447055448274
0.3369140625,-7.700314992903348,0.7678283639722836,5.897588493286695,-0.801089579326409,-1.8429171661645818,0.6935347417473444,-6.757436780696192,1.0134863762442101,6.524984607162826,0.36166213884556303,-1.6034053435754207,-1.1013535413899473
0.341796875,-7.776414667189801,0.7915792041087913,5.835226437627461,-0.5568073719872646,-1.6008297613939155,0.698889773624763,-6.823957109458891,0.9271630159802529,6.4966535805416505,-0.016809494741786973,-1.1810390519849168,-1.5785897539383977
0.3466796875,-7.728894184957876,0.8687969420415009,5.910780708784643,-0.7441887922990971,-1.6614774345883812,0.938633683463347,-6.8193025365656,0.9224750593554171,6.4823939862162945,-0.14868574951451669,-0.8773580122832514,-2.00135196787045
0.3515625,-7.7192790950230155,0.9313557313020535,5.934135230787884,-0.6184476144699894,-1.4804186346259385,0.6979076446583243,-6.810157591483832,0.9993444307904232,6.468892575237735,-0.3398448868256914,-0.5752373827046448,-2.30032011362127
0.3564453125,-7.747213887392786,0.9405953189535146,5.8631878948998795,-0.5598401899051362,-0.9974299155383607,0.7611036494603518,-6.881240214949342,0.936767599287394,6.473882417162733,-0.47172961331288554,-0.2715036835933099,-2.7230832005136296
0.361328125,-7.756843804252692,0.8876685891096165,5.844487434575355,-0.5603051889893836,-0.8767208564981167,0.7614025188036376,-6.909440687460468,0.7402827223361569,6.434531149870404,-0.8417708207751567,-0.2733878315771527,-2.9595512886310695
0.3662109375,-7.737924384633349,0.8685429038674741,5.863660105041463,-0.43746465742407814,-0.6954384935829793,0.7033382706234758,-6.927684438528763,0.5960732655341906,6.471064608937933,-0.842005318155356,-0.33325027155529496,-3.02132479673331
0.37109375,-7.746895411092101,0.9067642972519387,5.825761403204178,-0.19370264422594308,-0.574017855008546,0.7692765133823968,-6.8850781265129175,0.7015855899653838,6.490453135221059,-0.7773623169607186,-0.33450949763243837,-2.777888776780672
0.3759765625,-7.732920601444693,0.897328473717881,5.858908040308822,0.04630675845109798,-0.2110448400355224,1.0184139055905883,-6.837825293302516,0.8167681148834455,6.500443628668237,-0.8421158393387522,-0.09335421460640247,-2.8353833674963265
0.380859375,-7.742831893671806,0.834901699727645,5.859039380328015,0.2919026257651096,-0.08973032691754906,0.9626257065923596,-6.880524969057433,0.7400363326852957,6.481343831187727,-1.0904935262830768,0.026236950160660563,-3.0122751275601836
0.3857421875,-7.776133291822593,0.8010792482551291,5.816394637283742,0.7147173060716625,0.032570507328374,1.3365772005641228,-7.008446948865662,0.5383967302901671,6.457353547165525,-1.3363983567281044,0.08462838477859451,-3.067317738099823
0.390625,-7.8281764554591025,0.8248051074751203,5.754404780870282,0.8945697614650955,0.09372010096512196,1.5838278712334282,-7.018403670308494,0.4861213101408964,6.381468820805667,-1.2099505059644626,0.02371307127822555,-2.825822203628471
0.3955078125,-7.865911775189393,0.9496394004930423,5.7391573054285745,1.1380936049156571,0.03417025800986044,1.7102010375096268,-6.97076987321737,0.49574306619964786,6.39511783906469,-1.0849432218621393,0.08342390641868981,-2.5831677879552424
0.400390625,-7.856252271721127,1.021803846116186,5.762468716706045,1.2618617544704507,-0.025936216038528588,1.6515508697558319,-6.979707735144851,0.4856750392554172,6.461182118551805,-1.082811729597913,0.20225207011653115,-2.337158487784296
0.4052734375,-7.851107800848868,1.0553394380397616,5.748300751801544,1.1416556028276656,-0.14709998037579608,1.5271096856720892,-6.984360136940964,0.3946847671419816,6.436741706830295,-1.2617878693089601,0.13818816257690114,-2.0887144240071196
0.41015625,-7.856096824354208,1.055423643385255,5.76231782916585,1.022893656507115,-0.1477035791603217,1.2812001848406036,-6.979665848328285,0.3421255821431927,6.407849306569608,-1.0720013392353418,-0.04325776464144496,-1.7885724230377225
0.4150390625,-7.884883189908988,1.0602300456123077,5.75715246230355,0.8393618789032967,0.03276496615508251,1.217150000403053,-6.988565622859261,0.35594499837871235,6.48830578465654,-0.6428334496262365,0.2001814644202363,-1.4899093289606142
0.419921875,-7.850559877039498,1.0839715857490921,5.715291212792826,0.6590311576213527,-0.14898484174398552,1.0304945772549838,-6.979202829052998,0.36565977126995053,6.474130673138543,-0.397552608190709,0.5020759934094133,-1.1864797977044543
0.4248046875,-7.655673420647897,1.031886142185684,5.887678562161444,0.4188788849946267,0.03082454997179415,0.6608248571922798,-6.979637440953401,0.4521298539883507,6.456128071193985,-0.328504730398361,0.1986891910547942,-0.8847629212745423
0.4296875,-7.680714610599609,0.9216572993649089,5.925379515497919,0.41992406171878743,0.5133960191030873,0.4793400315582505,-6.9605877941256,0.4904252878780144,6.475142304907417,-0.26317172527427485,0.1371094800213915,-0.6419026339221046
0.4345703125,-7.77121122482601,0.9790957314285227,5.87203759756,0.6048488499321927,0.755177409179049,0.361730786414416,-6.994064721682857,0.46657909192066804,6.442300489112834,-0.26207092087809125,0.19655274889933952,-0.5188915254917205
0.439453125,-7.875964024067028,1.0364699428798563,5.804380842861155,0.608270681501885,0.8756507551779934,0.11849709780227481,-7.0370589637295735,0.4331465790913533,6.404764996483841,-0.1356341450431137,0.1356545016208783,-0.2774085445075983
0.4443359375,-7.8847573963921604,1.1131139617146857,5.76630969812079,0.304988629999475,0.814255006435591,-0.07028616393643254,-7.023158030316708,0.46218929455677615,6.3718537008879,0.05257888986350102,0.015001391782717586,-0.03790606703088895
0.44921875,-7.92291457744807,1.1081926846754366,5.737552700263513,0.18571659213759914,0.6930676705625981,-0.2555853211268018,-6.989619403041032,0.4907680195433281,6.414178032325789,0.17928747140888465,-0.22605770355928276,0.07938673192720301
0.4541015625,-7.956290042982354,1.084028695673639,5.7042591913024445,0.06651240097994125,0.8131806138849442,-0.501200391540029,-6.98491977660109,0.5434484633556743,6.428799078134274,0.1851386757933101,-0.34905838355696345,0.3842558367228525
0.458984375,-7.956126946806857,0.978076042090439,5.653064512836555,-0.29794862407455874,0.6913348151152666,-0.6912598216844041,-6.994723605683611,0.562803258740837,6.400808144661972,0.18713175237321436,-0.29009674389916124,0.5684715933871194
0.4638671875,-7.894416765376966,0.9639458468664324,5.715160138222555,-0.541055627273519,0.3888456572561719,-0.7576335486271853,-6.970987179167572,0.538978107558848,6.38611653809241,0.31545064967352454,-0.5919420182644451,0.7464040360045486
0.46875,-7.88414982867396,0.910708698694624,5.645088540845292,-0.7223782628591818,0.20720956524712766,-0.883378885836528,-6.966519876526718,0.6157707925846669,6.382109402884002,0.5613666697054707,-0.6502386867058221,0.8014575917076209
0.4736328125,-7.879782796361485,0.8916508081105184,5.67343223657291,-0.6606783052692435,0.0866947008013923,-0.8824562925524966,-6.971198604516217,0.6635332205446154,6.410953681677587,0.31704956765531994,-0.6527537019924822,0.807000124867851
0.478515625,-7.851514768007714,0.8774499739533816,5.716218093396877,-0.6621584021632634,-0.03387388882660699,-0.7609804176334591,-6.9329437046288325,0.6921565179355371,6.448500934433426,0.38020232845771407,-0.833178302332194,0.8038480169148848
0.4833984375,-7.813498274635406,0.8776212289194617,5.754390991426013,-0.845490878507293,0.0862048759864323,-0.8251818580270063,-6.862031162469695,0.7596585624966772,6.424690425623124,0.5616681526568992,-0.8304181398767124,0.6772583134252433
0.48828125,-7.775000343270376,0.8150124778258757,5.7317808679143205,-0.6628649757572473,0.14711783619620575,-0.7605551341943116,-6.886030491256881,0.7932699117852521,6.411175092598282,0.37527330437820805,-0.7106804644306504,0.5601675344113685
0.4931640625,-7.780374396134781,0.7960173857165035,5.769370028752602,-0.7864660773012091,-0.09444440000222556,-0.641745280647369,-6.909618820465577,0.7595660925059716,6.420572044474509,0.31101018786937695,-0.5896865134572576,0.44031037056616434
0.498046875,-7.837717612493928,0.8295915249689593,5.7495371734046,-0.8488784741212854,-0.03417596603842273,-0.5819258115961755,-6.895214609283742,0.7403522115396314,6.429634308000456,0.37010407477215496,-0.6480208862537534,0.25470817420843117
0.5029296875,-7.861381713943151,0.8631306909382916,5.730225397000683,-0.7890364939619461,-0.15454809247238774,-0.4592555772635669,-6.881074928695939,0.8026832002335805,6.439514636467148,0.4880030595852138,-0.5845883761035703,0.007661887087685664
0.5078125,-7.8613446802514035,0.8583014597029327,5.725549779959081,-0.7311222175859066,-0.2747910264250406,-0.2148202165966269,-6.909727744827825,0.7931433917778555,6.420908894744228,0.36268163065542786,-0.46421667370104036,-0.11080912858362486
0.5126953125,-7.8324398337797225,0.8534422513677538,5.721320802012409,-0.791244344016928,-0.3353828898021272,-0.27703788020340714,-6.928528964459068,0.7020194024513107,6.41079971906887,-0.0043712806660117474,-0.647598872895921,-0.2878487925413025
0.517578125,-7.7028975661041095,0.8775327197575482,5.760800280361061,-0.608367059492614,-0.3349097043196624,-0.21259800254191177,-6.914503546060776,0.6926880616060089,6.377503451736107,0.18008006045535668,-0.8262772941088893,-0.3549779780097036
0.5224609375,-7.607878539440043,0.8731580289914529,5.856254080796785,-0.5479807669707513,-0.09345538336412323,-0.21086450622988898,-6.86690087021601,0.7119033317424417,6.391248712929335,0.1212783375331631,-0.9480835730744203,-0.2935494034287916
0.52734375,-7.709449115537595,0.9120024109399479,5.910884469915299,-0.3031725226135043,0.26923611402380776,-0.2661199282026667,-6.847588321117061,0.7404125675255193,6.438469886237172,0.05509762444840533,-0.5862293349655693,-0.3498613402025022
0.5322265625,-7.798842502303601,1.0411400260201717,5.796155980275773,-0.18137870852651627,0.5109695464018009,-0.2631887434845742,-6.890041197998301,0.6826109014441918,6.4573001513298856,-0.010254706351098465,-0.5246372713334758,-0.5927248232174123
0.537109375,-7.77927895196642,1.084292688810492,5.786865396597454,-0.11671324822024597,0.6315257442358849,-0.5052439115974011,-6.900129913351003,0.6591481375327818,6.376986956684543,-0.014092335510322254,-0.34267375217454693,-0.7133757222204506
0.5419921875,-7.6557622477147085,1.0126748294605017,5.887764783612983,-0.29916107922094415,0.7514958178909149,-0.6303180447561425,-6.88087155504603,0.6924862443595176,6.41953905437138,-0.07658579152475176,-0.22264195160248348,-0.7108226321874466
0.546875,-7.733053976528369,0.945515173855217,5.886875521106894,-0.29449752941178137,1.2941658974397625,-1.0551812875020152,-6.904321466969006,0.6873702832843754,6.457527917578835,-0.07908217820620188,-0.16136505976557716,-0.832663890808944
0.5517578125,-7.809013097614679,1.051019705290003,5.842935713896565,-0.1074303246273116,1.4754452266636333,-1.2947057937353472,-6.932400711140474,0.5960286931298209,6.475841687619983,-0.2012596518852694,-0.16259968005552342,-0.8298729071643939
0.556640625,-7.899169028773694,1.0794299438333363,5.752145748900058,-0.35061133815241985,1.474703368848191,-1.421241224239962,-6.961191944558083,0.5579010264699575,6.428644034565838,-0.0795879261623641,-0.04109835501336365,-0.7702591131975662
0.5615234375,-7.885223671251186,0.9737527352949236,5.752843286430991,-0.5337874177604782,1.5344996665174762,-1.4855399713629258,-6.927939289101175,0.5915013065290725,6.437996107854119,-0.25964770602682236,-0.1646136172088036,-0.6448464360430988
0.56640625,-7.860907924759006,0.9399231357308943,5.720486166385551,-0.4720989402163295,1.4139882557376104,-1.4846108099053446,-6.894872818348112,0.6587431138697066,6.438250637235915,-0.2591347976139946,-0.28485727721730325,-0.7072388448973405
0.5712890625,-7.889834977997391,0.9399795158847778,5.724736699695108,-0.6550635274185381,1.1721386209083131,-1.4887556605586592,-6.927909796177701,0.6536664640050949,6.466924869455062,-0.1983810345782538,-0.10411474279190701,-0.5844542855037187
0.576171875,-7.913062122229029,0.9396348540444076,5.658604086786515,-0.6551378086527141,0.9308697804820925,-1.4284248972454463,-6.932337925873465,0.5529221077898907,6.465974200239855,-0.2617634283738794,0.016407972281610325,-0.6430831163839283
0.5810546875,-7.831588462319902,0.9733809406298267,5.69729605591785,-0.6560833625863242,0.9308661491828288,-1.3675730992467907,-6.937061707409616,0.5433161353126573,6.465937838899599,-0.2601754391581293,-0.04439093951616672,-0.5824574113883
0.5859375,-7.759914993562643,0.930212559518933,5.722092513943573,-0.5936800671597587,0.8705909162883014,-1.4273919638128734,-6.899179719704217,0.6631420444511849,6.494965005354185,-0.19502802333112626,-0.16586635010372427,-0.4014092453491161
0.5908203125,-7.736776609156086,0.8728440740215662,5.774392273993324,-0.4699163779518262,1.05181051730916,-1.546325272686525,-6.885448867597725,0.6971099729747182,6.44323304287294,-0.19887366453166147,0.016074353470140974,-0.5220715148251024
0.595703125,-7.818465024132314,0.844006427833696,5.754467439117053,-0.3475753628817636,1.1125531258187642,-1.5437675258708514,-6.923632930519365,0.6110219331321621,6.390956741247565,-0.14006578735329908,0.13788222503131123,-0.583480981955034
0.6005859375,-7.856348209662675,0.8341503073428348,5.702246134600226,-0.35115175625315787,1.0525174697355308,-1.3003792464747925,-6.908827942554955,0.6345292694479419,6.466492857210857,-0.01775455356269857,0.19899502296912494,-0.5244724931462778
0.60546875,-7.856622339671685,0.9160888200195565,5.753548589880539,-0.35256574174032446,0.931932834734845,-1.1789316491297304,-6.909223924284561,0.7209672381615246,6.4532074523544,-0.13938173815033972,0.07751906032652127,-0.5840942747369652
0.6103515625,-7.842632703099232,0.8970209370688443,5.782041165306466,-0.35098108491795693,0.7508359632401583,-1.2402257089601876,-6.919143643879479,0.7404183755611399,6.411064927617794,-0.07827701465544588,0.07815831293370172,-0.5854844149433786
0.615234375,-7.852588408859751,0.8249885067160171,5.78221561605143,-0.29025988436054745,0.6304204274426467,-1.1784025206244566,-6.938046278948527,0.6924330855793425,6.406106042234461,-0.14164544460173734,0.19868894400906434,-0.6441258142863994
0.6201171875,-7.890382700081572,0.7958418643377835,5.715989015772682,-0.4771717342863664,0.6905039696312619,-0.9991993148205816,-6.947407987206202,0.6348791983189686,6.400931150729025,-0.13885846247194217,-0.04266138441997363,-0.6464598552400733
0.625,-7.894735039952462,0.882271364730344,5.710829406987111,-0.3572682262247568,0.3893788063615727,-0.7540136556399194,-6.9993481428791355,0.6057368156571272,6.434321499076556,-0.07480917730066387,-0.2234830061224208,-0.5884018696259589
0.6298828125,-7.894883174719452,0.9015882896717797,5.72953187515352,-0.35915486852494705,0.3895028560514109,-0.632264381336373,-6.9711519226466825,0.6491429494280937,6.4108093172762795,0.048252862255515,-0.2227080609904835,-0.5299717265349083
0.634765625,-7.856281656604298,0.8870606264992763,5.716100542821953,-0.23712727603195172,0.2692073828804425,-0.5692693060045807,-6.956523982138792,0.6440945415445525,6.4530363248202445,0.11248377170441663,-0.3437004122943207,-0.4101131178589561
0.6396484375,-7.794726922541323,0.8393106340062004,5.778347055748147,-0.4229087043582597,0.2688024730151782,-0.4511028963052348,-6.942281257790298,0.5915281593400507,6.428741358459762,0.051406518476105036,-0.34433270451998715,-0.40870872402568453
0.64453125,-7.794815682366404,0.7815974866684634,5.764514202889305,-0.3041012545005943,0.5107248347752397,-0.2654953808296933,-6.9704930386459285,0.5529187826079248,6.452301661727141,0.17653330919390267,-0.524540927645403,-0.3520333784144292
0.6494140625,-7.799404849587638,0.7911289300521679,5.750305135100919,-0.059707691557488445,0.4511258755801498,-0.1999675760811449,-6.966187765612709,0.62027852358015,6.42461229814402,0.1790387639872224,-0.5858089375766635,-0.2302087805701558
0.654296875,-7.789693418260848,0.8103302504107436,5.750367793347689,-0.1829887308948685,0.39050313644466544,-0.14163093511848365,-6.9280476706891285,0.6011590486163887,6.4286579566121205,0.24010509131852176,-0.5852067502460674,-0.23158877664817062
0.6591796875,-7.828302383459391,0.8489248605978517,5.773085693673806,0.059096463321109134,0.451724653009465,0.045925007122724355,-6.913690684151122,0.6202549959511379,6.447539586051091,0.2418778681167704,-0.5861451191585324,-0.10917124461142745
0.6640625,-7.890501315481932,0.8728983396710197,5.75322150920242,0.11850606754631775,0.4520619528533731,0.1688827101350052,-6.890335221515807,0.701990613628459,6.429189454669687,0.180628270405917,-0.6466684683827174,-0.1695908547785949
0.6689453125,-7.85161842199957,0.8678707206448538,5.720958376527134,-0.0010794143658978755,0.14987089207060447,0.04403310852601472,-6.91891828623054,0.6828251770902356,6.415204667100664,0.29942208857210045,-0.5836621026306327,-0.35541331919451075
0.673828125,-7.875156595448505,0.8772901334914549,5.682965687319694,-0.06256418505890272,0.21006231629406105,0.04297826399918833,-6.899697472547777,0.668356283552653,6.433689564675967,-0.007187076298650994,-0.4062597498708447,-0.2854949210460965
0.6787109375,-7.861426127476557,0.8535250345757005,5.7302685077264535,-0.06491583801136176,0.3308683661228762,0.16501583872001765,-6.913961638121007,0.6443993511694283,6.424194207946097,0.11745116779432001,-0.46625662828831815,-0.16643398972457915
0.68359375,-7.861855570369025,0.8248400807582437,5.753883701926198,-0.06610077661773801,0.39128177049195745,0.2260413440981734,-6.880669266944712,0.6301284028545902,6.418913475299045,0.05458680902916298,-0.46598114689574077,-0.28745806683002006
0.6884765625,-7.923306650440143,0.8821693265598471,5.686896905869747,-0.12762758496027327,0.21019048533083595,0.28530057056430247,-6.852116780702041,0.6349677962859271,6.423319504290558,-0.006497018170874295,-0.46662970781405283,-0.28606641502094876
0.693359375,-7.841551547922078,0.8869136226790496,5.692838000346982,-0.12764133083087137,0.2101355807220523,0.2852859577239915,-6.8949114485189105,0.6587752278745241,6.433533440147813,0.11287135919983304,-0.2239862344264574,-0.286511410459261
0.6982421875,-7.813749928910794,0.8103552313272603,5.7499955941019145,-0.12609658841667495,0.029044173455103017,0.22400668432748758,-6.8996894208490405,0.6539981264409488,6.428828003186557,0.05039907882069799,-0.10393006927045298,-0.2839490631295145
0.703125,-7.814046198444776,0.8489890812101317,5.7874005304347325,-0.06479376987107717,0.029192463250973785,0.22518840067107349,-6.904282294023913,0.6634186120949901,6.452570113155219,-0.07017757271836927,-0.1659891290927535,-0.22055169036204342
0.7080078125,-7.895060896094804,0.9016674988339698,5.743623392366981,0.05651380595691109,0.39161497033356624,0.2284165507912881,-6.951961687435982,0.6203480127836244,6.419715456274072,-0.01206868140453423,0.016160821707912828,-0.2813871138607635
0.712890625,-7.88037526818772,0.9304166732637066,5.734323034928162,-0.004533238317812437,0.3310886693754429,0.2270688476617512,-6.937990459831666,0.6158455429819808,6.38175011332031,-0.0701444656135321,-0.16595467725724675,-0.2205394580974929
0.7177734375,-7.889916492464274,0.9737049253701003,5.743374501772862,-0.06556677879716843,0.27056951524103584,0.2257186034410881,-6.947237905899829,0.6299539852608579,6.419751817614328,-0.0669820406003085,-0.28755903623030743,-0.09929879601664746
0.72265625,-7.923166164481728,1.0024248524706802,5.719238228629034,-0.0005459020864755801,0.02918965286361419,0.04372113577232116,-6.918708489204779,0.6300287356581717,6.419392528050635,-0.06768468574959363,-0.2272386164991552,-0.09870840166218667
0.7275390625,-7.889301881113067,0.9782437230107623,5.6963812223651065,-0.18155856955067592,0.028475144751753306,-0.14250226700591423,-6.914309852432488,0.6686079343973536,6.391414435664899,-0.19051813768880016,-0.1681561137040176,-0.09534859165926168
0.732421875,-7.898739249672577,0.9156057245880196,5.6589351831484045,-0.4243807888526607,-0.09297855898690106,-0.26930226220683845,-6.966226938557803,0.6442301947695354,6.429570102567634,-0.25250256841190394,-0.16828938279058048,-0.15517657216524536
0.7373046875,-7.890116286122869,0.8919776371258853,5.729649425728445,-0.4869261873229912,-0.2740453927941466,-0.1491589962425987,-6.956701572369607,0.6394583545297995,6.429402217912634,-0.18983795945381043,-0.2284702694115971,-0.09593881355656632
0.7421875,-7.870449149035562,0.983211387837288,5.72953763323025,-0.4866555800822555,-0.33442969625376207,-0.14933154120455505,-6.9615729084388045,0.6634617953292675,6.424985509753995,-0.06748238118859216,-0.1673338987466664,-0.036925078017989214
0.7470703125,-7.831744044170281,1.016764812585867,5.725285092078808,-0.4238984721705973,-0.21374941516102033,-0.26962971297460375,-6.9329351101558006,0.6538788036392652,6.4339643714323,-0.06628892678247886,-0.34791191199570043,-0.09988941978182428
0.751953125,-7.813713029702506,0.8825296693170106,5.773158125681076,-0.4841015445050616,-0.27429991234769063,-0.33180668540690383,-6.946843552493108,0.6152746881009786,6.4620622270059345,-0.18528612206202077,-0.4707653933087373,0.02414048848901743
0.7568359375,-7.76610358592031,0.9019550507497931,5.820788026765956,-0.5451628847473896,-0.33485453465197434,-0.33316077261934524,-7.019009991838155,0.6492752774711107,6.373670556510954,-0.30687285953727783,-0.5921798709791418,-0.03547307876780356
0.76171875,-7.7857263767159415,0.8588287910135362,5.834775782848762,-0.4234957356187905,-0.09313072935104984,-0.33019297552291293,-6.851869981828366,0.6538979124027493,6.461249566863781,-0.12091642158518905,-0.831782400125644,-0.0419711398094116
0.7666015625,-7.804519868334996,0.8538347231329473,5.7969221995791305,-0.3624314351126117,-0.03260121225514579,-0.32884888347107427,-6.9474246333779694,0.6875150697269448,6.42032927521956,0.06026465699248354,-0.6488085823893538,-0.04439579058682653
0.771484375,-7.838028776194685,0.9163592688810399,5.805515245726517,-0.30322130128804026,0.02804015593567148,-0.20577147985501232,-6.9098339553186,0.7071229051269003,6.372870737455365,-0.0629521002118449,-0.7095005659606559,-0.16461921426579168
0.7763671875,-7.865697020122293,0.9447309600954934,5.720390171173511,-0.3040635278896415,0.2694267641538784,-0.20521342185062924,-6.881079723748907,0.6735240142378778,6.386326188886258,-0.18474092104043874,-0.5910216465894895,-0.03823760352527636
0.78125,-7.880745470621737,0.9017053163921864,5.75324105672342,-0.17846500001180676,0.20923952673013566,-0.38557932100732184,-6.908680930796202,0.6248394133558082,6.4805482055409565,-0.06511767419095474,-0.5284906664308804,-0.16285421410562725
0.7861328125,-7.861418747634899,0.8679599221736506,5.734901014042286,-0.117290860500783,-0.031885790350332,-0.3240502577936629,-6.889267509033742,0.6341295069787061,6.5322940900684845,-0.00673968158026957,-0.5264951748924042,-0.34787966460339026
0.791015625,-7.8276581182580935,0.8341995394052047,5.716784290908616,-0.18166246716717485,0.02848103112221246,-0.1424653800510983,-6.876116652263521,0.6924987027590699,6.419479172777431,0.05529549153529552,-0.5263274598128084,-0.28805663844954393
0.7958984375,-7.836643971641892,0.8820529922063237,5.683539650750048,-0.18162946292485785,0.028476606035461066,-0.14247734448256788,-6.9141784012969145,0.6637148353440606,6.405517905462101,-0.006280492486098353,-0.4067085850762302,-0.2242824862443836
0.80078125,-7.817791239564387,0.8870206570328496,5.716696061615192,-0.2419615947734682,0.02822167491518907,-0.20456048178004105,-6.9426139114786,0.6109399855291354,6.3959134647114615,-0.06824923475254457,-0.4068506823582434,-0.2840963482657399
0.8056640625,-7.818776120591342,0.892272337133222,5.796526437128587,-0.24290967947107603,0.028272815941067318,-0.14368971589515717,-6.947314623467132,0.6060986560859251,6.400642421926409,-0.0038036231844796866,-0.4679475313547615,-0.10243976916691137
0.810546875,-7.832625002238461,0.8775884075445485,5.7446988872204185,-0.18163497403529255,0.02846430872571392,-0.1424812301367422,-6.923386131645691,0.6299520492489844,6.428886803820788,-0.12438447349221615,-0.5300275357386365,-0.03904174658838481
0.8154296875,-7.85155918154112,0.8678443175907905,5.716261204122648,-0.18090435349140596,0.0887586938398924,-0.20321227437692865,-6.9135586902412545,0.591442339713277,6.451968054336577,-0.12421260933902514,-0.47015785414817357,0.022762214889975006
0.8203125,-7.818361437382189,0.8920875157547786,5.763646230297177,-0.30323929198766797,0.028043556688084566,-0.20576316966309569,-6.923339449776155,0.6155617781324627,6.42874243941948,-0.001846554783614857,-0.409015744403556,0.08177714461347317
0.8251953125,-7.813350139868416,0.8583043039780259,5.735688523259604,-0.3641061327480383,-0.09279259886341476,-0.20722627589963594,-6.909159510694669,0.6061019812678909,6.414314960439124,0.05993315908686781,-0.4687352429341437,0.07980732334879453
0.830078125,-7.851640628766273,0.8630678924635582,5.720979931890019,-0.3023811981687377,-0.21328041151997396,-0.2063017067380164,-6.937619718746859,0.6203211599726464,6.428970205668429,0.057453094348043375,-0.40745291224378166,-0.042036264234397554
0.8349609375,-7.879967897578494,0.8772951296747583,5.682891247470539,-0.42630774507303787,-0.09284795301488258,-0.14753712148522216,-6.923294396229504,0.6729301785696445,6.457623079553321,-0.06432555879409364,-0.28897014661479853,0.08432391009344238
0.83984375,-7.889760910613896,0.9303210534140599,5.715385465611905,-0.2443329321670612,-0.09222738099913624,-0.022206339582666948,-6.918848534813384,0.6731995490077369,6.419825621254559,0.11822868152761232,-0.2267442043635318,0.08074761920194812
0.8447265625,-7.908517368541203,0.920497754298112,5.672856265300671,-0.24463190273042498,-0.27315945955899246,0.03826421486706831,-6.918700980280338,0.6395901357310354,6.424205968072943,0.056251713449443345,-0.2269087081825085,0.020932468727185655
0.849609375,-7.922891967230989,0.8819845051814038,5.654016699038338,-0.3663434746447279,-0.5148328962852532,0.0353292003706398,-6.947353796412226,0.6300503272753104,6.405600226350024,-0.12805264792083532,-0.28818526167923686,-0.09790838061659747
0.8544921875,-7.894305529818262,0.8724544839352462,5.673295138476985,-0.3649725610545592,-0.6355999029766569,-0.025830405086934526,-6.952100647495998,0.6156797117640539,6.4007985464545625,-0.00519786286145046,-0.3472645954090391,-0.10126989210950564
0.859375,-7.875600865266019,0.8582372390906526,5.711234943198155,-0.30443896975979773,-0.6957196164175096,0.03610535191117205,-6.961269747673975,0.5818848116641604,6.428884641901352,-0.0027374060075148242,-0.4085253695704526,0.0205679724941989
0.8642578125,-7.798731132261438,0.8726449938638762,5.72645283190944,-0.4284691474376979,-0.8166601419433002,0.15517149357358287,-6.9518752898470595,0.5580865132931496,6.404938285937433,-0.12488675595523385,-0.40978383797584866,0.023354696276355044
0.869140625,-7.775378060029512,0.848869902581515,5.77390453201451,-0.43060567652235454,-0.7562009936384393,0.2770684224811323,-6.9284887059653855,0.6302286168927895,6.386491911621822,-0.0004246652891804443,-0.529687731574786,0.0806051344951056
0.8740234375,-7.77103323448374,0.8250091838161138,5.802269783105012,-0.187321695284165,-0.5140984607519424,0.3432984496940702,-6.909237313810561,0.6300857664620938,6.414555567774637,0.18298390994397126,-0.46794282253219843,0.1382349949721569
0.87890625,-7.751936093489045,0.8058042894117814,5.807350936357658,0.1785220712162597,-0.27166640241951207,0.4119213471410992,-6.894756385061422,0.6347272146706864,6.442727226988503,0.06220877989804319,-0.5898928406445818,0.1398386855318974
0.8837890625,-7.8232172202873125,0.9209886901880454,5.7775339754841735,-0.007046128658163998,-0.030729036503278587,0.4697391624998758,-6.889947834259231,0.6538303592111483,6.45701142252727,0.12118708170077758,-0.40825062405124146,0.14020380187283318
0.888671875,-7.851870278000147,0.9161102268903164,5.758320202134182,0.05401966697385882,0.029803307574038013,0.4710832833262842,-6.923202118039024,0.6919887507057367,6.4766843537741385,0.11979250848504083,-0.287551888013643,0.14136169461080614
0.8935546875,-7.851685176783138,0.9304659053260765,5.748861191236552,-0.004837350467432388,0.15011244228019172,0.2875243837634533,-6.904468478727758,0.697060139376509,6.443472569248735,0.1171356318982999,-0.2861731466399045,-0.04226529235066687
0.8984375,-7.856511305838171,0.9401029609260344,5.753440813066115,-0.12790453055564477,0.029160673523140418,0.345726935143699,-6.9043762005372775,0.7161187115126014,6.462533843469552,0.11693696951229121,-0.34605400616351,-0.10406811905225301
0.9033203125,-7.879856863744981,0.9013092705812362,5.682783470656115,0.11836238145294889,-0.03053345505127461,0.28952096332602134,-6.928095980881547,0.6873079912866139,6.457827325548578,0.05465561881829131,-0.1661061241738913,-0.03970656979978386
0.908203125,-7.870175086268282,0.9397747097731209,5.692154252260318,0.1186014596306674,-0.09089517819229662,0.2893667832108649,-6.885324925386593,0.6826554738485616,6.452523072647835,-0.0676974267589866,-0.22726836622635654,-0.09871787228983096
0.9130859375,-7.875104869315171,0.9398325120645509,5.701474157220138,-0.12440067969062356,-0.15204095457373418,0.16268074634236018,-6.966304198899399,0.6442944227791704,6.420135708391431,-0.13014952779085862,-0.10715452337023876,-0.09615668943996457
0.91796875,-7.865697020122293,0.9447309600954934,5.720390171173511,-0.3070725419080757,-0.2129641912627286,0.09806615469935445,-6.966380373692407,0.5965195364196697,6.391351311191795,-0.06747650914189442,-0.16732310222076932,-0.03690849788402374
0.9228515625,-7.837125342392882,0.9063311636534352,5.7304035979804935,-0.30775408705158763,-0.03194901205033152,0.09849123966057205,-6.961781077141682,0.6444995652076276,6.391772644268873,0.05379649578420342,-0.16560993475252456,-0.10090647971314058
0.927734375,-7.851574008466164,0.877476377007445,5.720915265801365,-0.24502539036626847,0.08878739740681241,-0.0217775759970672,-6.932880919361825,0.6490499325956072,6.4386334470532995,-0.06648452915016806,-0.40778977650094694,-0.1616858450920593
0.9326171875,-7.861574262243548,0.8728419595171363,5.7489709758928615,-0.18258137146620718,0.02855060359729648,-0.08159696261483325,-6.957110943625212,0.6350148515439514,6.377464928476415,-0.06556113524037314,-0.40822729163802784,-0.10046949534226485
0.9375,-7.880545542479683,0.906428935411292,5.739127984147074,-0.06284434442533479,0.029090296102109458,0.10342612122351359,-6.933150787783119,0.6253551734447618,6.395938065924872,-0.0037999346364246817,-0.4679576519196199,-0.1024412349866488
0.9423828125,-7.8466147060526446,0.9351581251078155,5.7301253861048735,-0.12462735972809587,-0.09172209106648563,0.16281485225720155,-6.909346238172809,0.6636630657339778,6.414892418044356,-0.06717170394147348,-0.347463688757689,-0.1610967814151051
0.947265625,-7.841744163464204,0.9351267258704489,5.725502653549542,-0.06115250504869354,0.08926503514607534,-0.018206317640590063,-6.904134739490866,0.6298091988182886,6.456950459973602,-0.18827323453867376,-0.28931216101410023,-0.03530769919424523
0.9521484375,-7.885490085209889,0.8776169625068218,5.739182876475229,-0.12107657475597511,-0.031606561987719856,-0.08053583227149697,-6.9279870565192985,0.6537306920147299,6.45749047527886,-0.06909516614863184,-0.10655802585012958,-0.09754596515406586
0.95703125,-7.8652675099880955,0.9349140793003954,5.682855902663384,-0.06166153249075585,-0.031326513557374445,0.04240093747397035,-6.923208541414876,0.6345882362637375,6.452520910728398,-0.07068582555840791,-0.04575712269208228,-0.1581652104544286
0.9619140625,-7.908406401949419,0.9830137298171445,5.686667562796628,-0.00012595580715689207,-0.09148864443132329,0.043449544007721726,-6.932896479985002,0.6538466896344477,6.438681568520402,-0.009788049415806225,-0.10499904579064555,-0.221355124205949
0.966796875,-7.888953885445751,1.0021522517009869,5.677484755932733,-0.061614192387746035,-0.03133327379882449,0.042382613843884274,-6.942413794474461,0.6442603727624794,6.433987891685992,-0.06997315805401749,-0.10608208199947507,-0.15875434986546627
0.9716796875,-7.889797944305643,0.9351502846494189,5.7200610826535065,-0.24316380612740587,-0.15263757692499375,-0.08322603075303661,-6.937774239430053,0.6204496159919164,6.410101417316023,-0.13015322129514623,-0.10717178543750379,-0.09614664338499354
0.9765625,-7.851559248782849,0.9063461522033452,5.7301802784330285,-0.3011880018021975,-0.27370459388118296,-0.2673345674197956,-6.951884427094385,0.6202837847739894,6.429149850450275,-0.06978122712461833,-0.046196295649909576,-0.09695330640135462
0.9814453125,-7.827495291049517,0.8822542242722238,5.721265909684254,-0.24057947306453592,-0.09251979930465795,-0.26571464171057824,-6.980182605538938,0.6439359075323384,6.467487324054293,-0.00592092047924202,-0.2869148989924505,-0.1007002966296023
0.986328125,-7.836903207484126,0.9158576108538363,5.716268970041263,-0.30161871207894914,-0.15303316008050713,-0.2670605903796043,-6.971120258626031,0.6156298781658447,6.4010380728303575,0.05766422335923976,-0.347548593255924,0.019759707165514874
0.9912109375,-7.85082615651474,0.9108321437358807,5.6737926542162995,-0.3622460635815638,-0.334205071926204,-0.26866838778941465,-6.947424090603675,0.6635955125423769,6.410654273707844,0.058554907813756746,-0.34803106804308953,0.08096288712507274
0.99609375,-7.813631515235623,0.8488042598316883,5.754520323603322,-0.3625122585151915,-0.27388183624566065,-0.26852057542473673,-6.937829515772619,0.6731176014047102,6.424782344718457,0.18140203643659367,-0.4071238335382474,0.07759656157755505
1.0009765625,-7.814127645669929,0.8442126560828993,5.792119258202104,-0.4860244663210322,-0.2741561357773998,-0.2100382040219437,-6.91422508316645,0.6781051064605823,6.405662269863409,0.057471914759079486,-0.40746894733678174,-0.042042464815840744
1.005859375,-7.832721209146929,0.8439422072214159,5.740152602356127,-0.1834180128679519,-0.27302606875873847,0.03947025313917143,-6.909501301630298,0.6877110789378157,6.4056986312036654,0.180833099829593,-0.5867741278245563,-0.10779129947356463
1.0107421875,-7.8517073163081115,0.8871612425322263,5.734963672289056,0.00023482912425095562,-0.21218259199541953,0.04319066453309288,-6.909539931801096,0.6877431929426332,6.400981434115564,0.18083553914344278,-0.5867735114161868,-0.10779082948342782
1.015625,-7.851759109683174,0.8631206985716849,5.730374276698993,-0.1836188523361711,-0.21267790478989115,0.0396067141093528,-6.909756152202709,0.6831391199326976,6.372630130119852,0.055009506745910694,-0.34620290836888884,-0.16387455549990573
1.0205078125,-7.8850530607505736,0.8052313000845646,5.67844296566017,-0.001489505817517412,-0.272329804194031,0.16484543777728028,-6.937922336737395,0.6779785864531858,6.415396072009356,0.05619536595723619,-0.5267461842806497,-0.22685141478639995
1.025390625,-7.855948353378567,0.8435975453810458,5.674019989447533,0.060025562361163506,-0.33253323470322327,0.1658868155489139,-6.914031389538161,0.6540249792519269,6.4195732537922,-0.002413235955913686,-0.5886553235150179,-0.1036193909413653
1.0302734375,-7.793905003206404,0.8630079382639182,5.7218732100798775,-0.18422614849966115,-0.5746236775266627,0.16052070463649412,-6.952395213787797,0.6589789811328889,6.38236285130608,-0.127022583866249,-0.5286153564709494,-0.22267917275664936
1.03515625,-7.804008978217374,0.8872961020776364,5.7685882776120145,-0.0035723217716090608,-0.2119513447217816,0.2866949429694038,-6.918600650391121,0.6442905507554234,6.438405680804351,-0.004903593105782191,-0.5273888306708203,-0.22545502821562283
1.0400390625,-7.83299527191421,0.8873788852855831,5.777535983326058,0.05844493675370409,-0.15149263866322804,0.22715670654994838,-6.9282263464685325,0.6443619759707713,6.4243738527279435,-0.006989829916230501,-0.3463602533280734,-0.2236961506943525
1.044921875,-7.807768846262029,0.9349597373170087,5.702537870471191,0.1810312486457116,-0.15117488908703203,0.2295376962316797,-6.913931602423239,0.6826449514608829,6.443447968035325,-0.12895847065379934,-0.28775304466192797,-0.15912899513796092
1.0498046875,-7.827228809849084,0.9398881624477708,5.721007245329635,0.2415852339551507,-0.21127316659472486,0.29147446177693714,-6.9185464595971435,0.6394616797117654,6.443074756425349,-0.12687042305923676,-0.46876789001308816,-0.1608795354580059
1.0546875,-7.841907057914511,0.9255738756159844,5.734940109084286,0.18249535240018272,-0.030608358978833423,0.10806473158397621,-6.899696929773483,0.6444367263680851,6.424014563164251,-0.006609521186600901,-0.22662493949427365,-0.10009812883202301
1.0595703125,-7.823320941520898,0.9499112714920723,5.796193332924813,0.06162710992479223,0.029230751474457996,-0.01596384624113807,-6.908982463238149,0.6346577254672119,6.447624068858451,-0.007320313796083776,-0.16628095591799555,-0.09951357406487886
1.064453125,-7.851685176783138,0.9304659053260765,5.748861191236552,0.06213702408278791,0.14987866665286492,-0.07654958432594042,-6.937681961239573,0.6395081881280087,6.429162691536839,-0.009278987035917346,-0.2252113897156812,-0.2837351084537275
1.0693359375,-7.884682992800014,0.9109463261811941,5.687363092485676,0.0015857886125765438,0.2100233149116469,-0.13847008133622918,-6.942630014876074,0.6396562997525439,6.405636587690281,0.053208515711256184,-0.34525708037040065,-0.28629500910971745
1.07421875,-7.894416630893506,0.8869421776413229,5.6873219896017915,0.002006797464429777,0.08935623452209437,-0.13873890620288493,-6.952170941687449,0.6492248970311204,6.405852593812384,0.0525133260096061,-0.28491093138687584,-0.2857120975286419
1.0791015625,-7.87048611548558,0.9495387844600922,5.720294175961471,0.0018233071085919136,0.14965433200790423,-0.1386268293719406,-6.933097139763437,0.6444458595856715,6.410282143057587,-0.010665759111720767,-0.10453230587024898,-0.28256098160033427
1.083984375,-7.865386058146726,0.9734687200210768,5.70616932178274,-0.11735895196199973,0.2697228247032293,-0.38426531659396784,-6.956887757073451,0.6730998818113185,6.420304674006149,-0.008374628766803172,-0.2256612503775364,-0.22253322566169315
1.0888671875,-7.888872370978868,0.9684268422156646,5.6588469538549795,-0.11713883403947532,0.20940750588211587,-0.38439550613492424,-6.975729235198376,0.6537666780432945,6.434503305777839,0.05269544835431129,-0.2250210145091699,-0.22392239102749503
1.09375,-7.903432138127394,0.954059749275751,5.663385472800657,-0.23788673387159237,-0.03234530930800909,-0.4482189154472206,-6.961603486910867,0.6491357522223808,6.415406751176484,-0.25287974085888837,-0.28804599068138576,-0.27876938191196976
1.0986328125,-7.91323984360438,0.9397140632065977,5.672695603999976,-0.3005569387534139,0.08824444790682578,-0.3882539110430022,-6.928712978065735,0.6399827009945582,6.36300216911552,-0.2514629829383274,-0.40874178681229895,-0.279929974424114
1.103515625,-7.889227679246112,0.8915815913149351,5.659191839661139,-0.3591046783037885,-0.15341705056113905,-0.5117517373330367,-6.942730344765291,0.6349558847281558,6.391436874958873,-0.06665356416521587,-0.46765385530441106,-0.22347647549366553
1.1083984375,-7.898976077022918,0.8387076675791635,5.649885724145589,-0.36059984858013006,-0.27393863110351147,-0.39025309325216495,-6.9373262380036484,0.6248610049729469,6.466755903840344,-0.06580437298117589,-0.46812911612011054,-0.16227063908826952
1.11328125,-7.837821333727514,0.8585141062729861,5.768196530845239,-0.36250166199583694,-0.2738722103335235,-0.26852115113527786,-6.942390724926841,0.6490250157965025,6.438753210241197,-0.06686771401896921,-0.5275381841195831,-0.28528112385188426
1.1181640625,-7.823646595938051,0.8538019017580339,5.787230095373538,-0.3007943616867351,-0.3943965038442173,-0.2676041179771038,-6.946982512553123,0.6106063870814081,6.443145317186426,-0.18636017027018237,-0.5301775926192569,-0.0988642607741159
1.123046875,-7.847295803220501,0.8392071736981571,5.74934518298052,-0.17685518294548086,-0.5147816770463183,-0.3263546829320128,-6.947392426583024,0.6300824412801279,6.400883029261922,-0.06367294011146382,-0.6491343498943909,-0.16402526816390703
1.1279296875,-7.832462040546425,0.8486394231864582,5.721342357375294,-0.3010108846099569,-0.3340362658695299,-0.2674567645071661,-6.952479983053837,0.6494818090696604,6.36811501710757,-0.12542799574374253,-0.5894156924898272,-0.16205137201498448
1.1328125,-7.847399389970627,0.7911260857770746,5.740166391800396,-0.18111589277288725,-0.39381416789744694,-0.08254536004444467,-6.947354881960814,0.6778894416444461,6.424950229373457,0.05917756063042708,-0.7082236345830705,-0.1674018915164557
1.1376953125,-7.847044081703383,0.8679713366778039,5.739821505994238,-0.18158248966425847,-0.5144549550143089,-0.021970717327069268,-6.937458231913517,0.6536736612108078,6.462327435554859,0.1806098697104377,-0.646637757192711,-0.16959101962393222
1.142578125,-7.8560521418538825,0.9110219612976275,5.706598421198554,-0.12217121978167107,-0.5141556476475982,0.10097349404573076,-6.9520931385715565,0.6252411118369176,6.40561198647687,0.058672650018179055,-0.5879978370942982,-0.10500648290047458
1.1474609375,-7.880197412328909,0.8533337948764071,5.692393369093938,-0.0005922682893806465,-0.5137147679230677,0.16427096202911567,-6.956794393334381,0.644319339578275,6.4200159452035335,0.058477145980813036,-0.6478748067633251,-0.16680952538755006
1.15234375,-7.875245422515317,0.8580788207662725,5.683051908771233,-0.1830453717466395,-0.6349706434833013,0.0995201452202904,-6.98075400640218,0.6300594604928967,6.3918678062433605,0.05849282228393823,-0.6478540536061125,-0.16680713947229547
1.1572265625,-7.7890567346263975,0.8966755454578107,5.731191107197811,-0.30749737039517416,-0.6352499348915539,0.21885255821608693,-6.966474280205772,0.649219635837281,6.401315041506128,-0.0025887323716322426,-0.648494098070117,-0.1654210098328037
1.162109375,-7.761381110857132,0.8827387418413074,5.82094868806665,-0.24623496184018784,-0.6351112522456488,0.22004340454651486,-6.971290882706699,0.644474648408523,6.391892407456771,-0.0020779668224514235,-0.7687069003124529,-0.2278029906489585
1.1669921875,-7.775577988171565,0.8441462835624093,5.788017604590856,-0.12413044272273639,-0.5140652905197566,0.22273418923559865,-6.942962125790082,0.6351485687570608,6.363133692430263,0.06199421217597881,-0.9495770739262528,-0.16973123011417424
1.171875,-7.8137943424442,0.800749574964669,5.750038704827684,-0.12545138581807422,-0.15197474017851692,0.22359241187719853,-6.91402388061372,0.6635863793247906,6.424386693814507,-0.061083196538823374,-0.950399669059407,-0.22817187808162775
1.1767578125,-7.832195559345992,0.9062733613620052,5.721083693020675,0.05656015072501359,-0.15135522606592824,0.3489118175009693,-6.904275327873766,0.6968995693524215,6.467058554689243,0.05985087277175478,-0.7685996203172847,-0.16799022228450838
1.181640625,-7.890005252289356,0.9159917780323632,5.72954164891402,-0.003535621134498481,-0.21189901733377522,0.2867016491803795,-6.895097633222757,0.6924167551560432,6.424435896241328,-0.06368197546303686,-0.64917641890699,-0.16403305227714954
1.1865234375,-7.889516501696706,0.9061484941832019,5.687310207999406,-0.0051410084544284375,-0.030799028416130046,0.34800417501828723,-6.890218245454821,0.6540551572448708,6.423991042910559,-0.18883099293045447,-0.46895124405397365,-0.22069820417020913
1.19140625,-7.851337113874093,0.9158725994037463,5.716045650493799,-0.004926411683631868,-0.0911727319686251,0.34785367547265367,-6.847168184291245,0.610900127476824,6.437170606625401,-0.0684778807422438,-0.46679917621327777,-0.34588381626873493
1.1962890625,-7.884794093875258,0.9254340198872709,5.701389943610483,0.12049336791260536,-0.09101663131672032,0.16761595147905511,-6.909021093408947,0.6346898394720294,6.442906871770349,-0.06897273415189051,-0.34654084595024554,-0.2835149594579616
1.201171875,-7.9081323391821385,0.9395770517529775,5.649284181826697,-0.001833425650962966,-0.15167393558940817,0.1650848455915639,-6.9518924787931216,0.6346419418856937,6.434011411939684,-0.006992816539257558,-0.34634466059646646,-0.2236985229843804
1.2060546875,-7.90794723796513,0.9539327301887376,5.6398251709290665,-0.12511529705366828,-0.2122871927464775,0.22342530466171567,-6.951923057265184,0.6203158987788069,6.424432653362174,-0.06806841792757205,-0.34697081497781496,-0.22230558272190276
1.2109375,-7.917984525434262,0.9541275439337877,5.672556498062167,-0.06296625739515087,-0.45348168406968226,0.22406504694578327,-6.942651998875105,0.5870525423493851,6.381521266111643,-0.1909080447297117,-0.2878862990240261,-0.2189287027101191
1.2158203125,-7.9083174403991485,0.9252213733172175,5.658743192724325,-0.05992151812796929,-0.5140171656735429,0.04129939530578208,-6.971196976193334,0.5917745489909118,6.381928677142438,0.05290280264066181,-0.16513705114533633,-0.16210660406163194
1.220703125,-7.860137731557421,0.901078061415516,5.645503850816836,-0.3044130746759786,-0.6957319705962371,0.03609382176199437,-6.971413739369241,0.6110900331655441,6.363252374658442,-0.06606193758900933,-0.2879969386171076,-0.038081917972801665
1.2255859375,-7.827984041642166,0.8920975081213852,5.763497350598867,-0.3645422204380283,-0.7563469886453833,-0.026132469775033067,-6.95678579886135,0.606041625282003,6.405479382202408,-0.12596047495289597,-0.46919775021878835,-0.0996635998490212
1.23046875,-7.837813886644126,0.8344471592583815,5.75890996285069,-0.24201730406813277,-0.755984013868463,-0.023716531190183243,-6.933165262857709,0.5823128161144666,6.376636184368541,-0.06278077408333203,-0.6496013797575493,-0.10280020414088091
1.2353515625,-7.832543487771578,0.8438629980592259,5.726061085142665,-0.36573676439887837,-0.695913067433033,0.03490492420788596,-6.928326133583455,0.6157420037618154,6.400499138484819,-0.0006268494538611485,-0.589566370579471,0.018809765772973285
1.240234375,-7.808398150054822,0.8630493298678916,5.7263470629369,-0.24390250117686038,-0.7558725681179879,0.09802909081895135,-6.90433648481789,0.6682474831386481,6.44790103753422,-0.06242172653782164,-0.5298794369049935,0.02077279875401004
1.2451171875,-7.842677049390908,0.8489134460936985,5.768165201721855,-0.1859077709224195,-0.6348030268544782,0.2821472761334127,-6.9425763668563905,0.6587469858934536,6.419980664822996,-0.0036124205743725377,-0.4080783139240726,-0.040654990873615654
1.25,-7.84266966954925,0.8633483336916484,5.772797708037687,-0.1255683924250701,-0.6345736882313104,0.34421811687380083,-6.933135769934236,0.644477973590489,6.405564945969486,-0.0031030759850125505,-0.528299861779366,-0.10303244780437902
1.2548828125,-7.85633351722109,0.9015219171512897,5.725430221542272,-0.18652178094088798,-0.4537821401833335,0.2825526582915034,-6.889987007204325,0.6777820304005336,6.461969226950885,0.11991363496204946,-0.5275447576110364,-0.04460624065039939
1.259765625,-7.865815433797465,0.9062819315910653,5.715865441672103,-0.124802839959713,-0.574289291146443,0.28347239885334063,-6.909169190716289,0.6922188099332987,6.4482015264636825,0.05904077000382558,-0.4682810994955526,0.018575390398868054
1.2646484375,-7.860819030450466,0.9206326138435219,5.706480870623629,-0.18607407798118406,-0.574463758860499,0.2822701433074369,-6.942553297308771,0.6635116289274767,6.4247459833782,0.05657327454877853,-0.4069885016641748,-0.10325613848116251
1.26953125,-7.83743630436845,0.8775934037278518,5.744624447371264,-0.06186680472035761,-0.5139280516459571,0.16305481128115,-6.933059052366933,0.6683333027654218,6.424674341657405,-0.004505237198237425,-0.40762335238928094,-0.10186675978445878
1.2744140625,-7.823609696729763,0.9259763397477845,5.810392626952699,-0.24611398195420645,-0.3937883346978041,0.1597174639976613,-6.93301987942184,0.6443816315760365,6.41971653723379,-0.003424101928702773,-0.34820669608501337,0.021146329134487395
1.279296875,-7.837051275009387,0.8966727011827174,5.721052363897289,-0.18549866744618226,-0.21256302729228493,0.1613511434806914,-6.923324431927272,0.63468457827819,6.438369319464094,-0.004327642832700867,-0.3477526671407294,-0.04006285661001354
1.2841796875,-7.870034331342948,0.9060228972337351,5.668819277778078,-0.12347287451745273,-0.15209366783068862,0.10181519212529246,-6.947462720774474,0.6636276265471944,6.405937076619742,-0.12823899829750698,-0.348064343045315,-0.15971232221020087
1.2890625,-7.860833924617241,0.9687665078727313,5.725054006612728,-0.1831160985568434,-0.3333885354787457,0.039295038099983824,-6.971097189078411,0.6203945211998677,6.405803391385563,-0.06627449971355888,-0.34788042186525997,-0.09988509805669547
1.2939453125,-7.846636980061077,0.9688571315390747,5.744066015778141,-0.30494656944968535,-0.27346362198058566,-0.023842941779174884,-6.951937532339773,0.5772735414485118,6.405130771805844,-0.12806129631714813,-0.2881794674878763,-0.09789808526615401
1.298828125,-7.851574075707895,0.9159782116199997,5.734834340111746,-0.2423157518790291,-0.3940211129391421,-0.0837833060170865,-6.9332430659736,0.6062966013086695,6.3768767917040545,-0.06715881327246248,-0.34743964035588626,-0.16108447096188364
1.3037109375,-7.851581388307823,0.8630414894094949,5.716282759485533,-0.24321687628003832,-0.15263675397582363,-0.083207608856556,-6.89991369294939,0.6637522105427175,6.405338260680255,-0.1252605534141312,-0.529579841885506,-0.10025362965246956
1.30859375,-7.798679271644646,0.8581837032118625,5.717123153189121,-0.3673901807001476,0.028083906997667853,-0.02431302914991227,-6.895244102207214,0.678187054063609,6.400705546399512,-0.12417332450222163,-0.47016829229664864,0.02275215876859759
1.3134765625,-7.831714255836731,0.9204970245274485,5.68813882010061,-0.3039484098082993,-0.03221744307617882,-0.14502529461556896,-6.918841025888943,0.6827609490806006,6.424639061276867,-0.06787006910153119,-0.2871192309082033,-0.16051680638267943
1.318359375,-7.875401071607424,0.9399645273348677,5.724960019242573,-0.3027622096367447,-0.092610662306913,-0.20604564537558934,-6.947176748955705,0.6586060714746312,6.438909334769351,-0.19073151222223314,-0.22801638260247512,-0.15715304902592253
1.3232421875,-7.880056724645305,0.8580838169495759,5.682977468922079,-0.24196618765340408,0.028277474731236717,-0.20453865311921482,-6.9566629421988075,0.639426240524982,6.434119415000736,-0.31009356793942255,-0.4706246936487898,-0.1567170653938225
1.328125,-7.836851346867332,0.9013963202018228,5.706939291320943,-0.30447495703031985,-0.15282560893167962,-0.08441935528948702,-6.951737958109928,0.6345134858664236,6.452880200292091,-0.1863600719398592,-0.5301766977830373,-0.09887087795095637
1.3330078125,-7.860855996900485,0.8869600104663262,5.697237413354849,-0.30521094953162975,-0.21307733837135442,-0.023670694061001744,-6.9563528152838305,0.5913302141173062,6.452506988682115,-0.18547637475715875,-0.5306339450618566,-0.03765190526530687
1.337890625,-7.87486784023964,0.9012250652357428,5.668766393291808,-0.3061473804624149,-0.21300102441699192,0.03720749272904841,-6.923153807846604,0.6058398080355115,6.447514984837681,-0.18636705634264256,-0.5301943471000218,-0.09886030360193396
1.3427734375,-7.846510984819059,0.9062355438037886,5.711466028664235,-0.24603793732945692,-0.15245284874330398,0.09941331039346135,-6.918608159315562,0.6347291506825599,6.433592240782043,-0.0626105240536089,-0.5897436404862342,-0.04101781421742731
1.34765625,-7.8321659727376325,0.925511077141251,5.725694643973622,-0.3073086913365089,-0.15263930398092418,0.09820614236866573,-6.861409823091149,0.6156273953121901,6.442115569962451,-0.12192407788004063,-0.5913364790026789,0.08280382148336937
1.3525390625,-7.861574329485277,0.911343794129691,5.762890050203244,-0.30519745730428355,-0.21309725044890523,-0.02368380407813089,-6.866071904908884,0.6107539518641623,6.4515617242655,-0.06434281849815614,-0.2890058324984867,0.08434558708553852
1.357421875,-7.913624805721715,0.8821329311391772,5.68234861316357,-0.24297415316863585,-0.212938127042496,-0.08334094397374939,-6.899642738979506,0.6396078553244271,6.428683638785249,0.05574037852508768,-0.10670488071178044,0.08331797514454377
1.3623046875,-7.884734786175079,0.8869057822206529,5.682773696895614,-0.24495608231708857,-0.4541202602714576,0.09873206385828127,-6.937519388857641,0.6250215749970345,6.443169918399836,-0.0012730780439132137,-0.22937579984075582,0.26716254156066727
1.3671875,-7.880027205278674,0.9158233673413764,5.701507494185408,-0.12194609942590189,-0.5744817709175675,0.10083682021033441,-6.9278861838557875,0.6345115498545502,6.46201518649855,-0.005664867311966453,0.07277761451096164,0.20888076118293405
1.3720703125,-7.903913374394926,0.9013342514977529,5.68241127141034,-0.18184606576500498,-0.6953746523562436,0.038492477928760725,-6.956655433274366,0.6489876405978456,6.438932855023043,-0.06571168809942977,-0.16826350024779269,0.08549854044695557
1.376953125,-7.846621951410842,0.8437195682847558,5.697654731168278,-0.18306066725764764,-0.6349867204331713,0.09951938880992738,-6.9380371417012014,0.6302358140985025,6.381894477721618,-0.12447931978228712,-0.2900390591413264,0.14693803649966794
1.3818359375,-7.865208135046185,0.8578840070212225,5.650320581638134,-0.18334440533913426,-0.815926183344833,0.15998230509954073,-6.942692257368787,0.6588433279079061,6.405829073558691,-0.06251712013706989,-0.28987475116770717,0.20675067954217166
1.38671875,-7.865548818113573,0.8869122005415029,5.687768628696721,-0.18807287222759905,-0.8156078131299873,0.46436262279981266,-6.9330660185170805,0.6348523455079904,6.410185900123381,-0.0638005207918435,-0.40917314003341876,0.021951991412072804
1.3916015625,-7.81793192724799,0.8822706349596806,5.72611196178705,-0.2503153156645405,-0.8157448286998795,0.5240349939086792,-6.9523946710135025,0.6350594239483212,6.372687849794365,-0.06466877255159496,-0.40869253182874726,-0.03925766567291963
1.396484375,-7.780989007485989,0.7914785880758414,5.816363308160357,-0.24848452792423237,-0.81588809980174,0.40229538653040176,-6.97122918298828,0.6492071774377287,6.401374923100076,-0.00022979410981644675,-0.4697835591630858,0.14239051301159392
1.4013671875,-7.737731701849492,0.78182796606352,5.817076377528521,-0.18860313236960072,-0.6949959935192327,0.4646462150515564,-6.933150787783119,0.6253551734447618,6.395938065924872,-0.12188719605035757,-0.591281671543148,0.08279623818196918
1.40625,-7.785311693506788,0.8586439696350928,5.801895576017353,-0.12981457591370474,-0.5136646619461773,0.5880011885079413,-6.93755801902844,0.625053689001852,6.438452721311735,-0.12438804660018302,-0.5300187190580979,-0.03904374561134863
1.4111328125,-7.842292020031844,0.867992743548564,5.744593118247879,-0.008836646173499819,-0.33219549185405944,0.6517022127519402,-6.918538950672702,0.649023079784629,6.447888196447656,0.060431205692653235,-0.5889526109920968,0.017410444003900995
1.416015625,-7.832136318887542,0.9062469583079419,5.7163865206161875,-0.009030805983074196,-0.27186906590999815,0.651829266714204,-6.889917798561465,0.6920759595026028,6.476265182616497,0.0027122527702264283,-0.651333897088503,0.20183750159882605
1.4208984375,-7.8224841280192035,0.9254746817205809,5.7211463512674445,0.1748178929906472,-0.2713782769171001,0.6554133297916236,-6.92336414764666,0.6825558066521432,6.453002125399425,-0.06044513866992596,-0.47091533605470903,0.2049848922202553
1.42578125,-7.894357457676786,0.9254176091998143,5.696543891507686,0.17534813660746126,-0.15071335858684157,0.5948260611079867,-6.928311115734571,0.6348648039075427,6.410126018529433,-0.002531003095366776,-0.3486708615500629,0.08236062536234569
1.4306640625,-7.918547208926947,0.8966256210285575,5.6963010244392205,-0.006822597835893132,-0.0909856756134751,0.4696290883759484,-6.890388869535489,0.6828999274875494,6.414845377536971,-0.18456010421546626,-0.5311417792090608,0.02355316201856071
1.435546875,-7.894883174719452,0.9015882896717797,5.72953187515352,-0.06788776192196266,-0.15151744138180176,0.4682846171463577,-6.923371656571101,0.6729944065792796,6.448188685377118,-0.12260528166635899,-0.5309572301057247,0.08336873670053932
1.4404296875,-7.8893758140131025,0.9108985162563709,5.677894307827547,-0.005733526162623086,-0.3927094388099379,0.4689254925739408,-6.937697521862751,0.6443049451668492,6.429210813003942,-0.2461509892196649,-0.4115195977129808,0.08732511930002435
1.4453125,-7.918132592959523,0.9349426342626688,5.677339891918193,-0.12593921526426116,-0.5138508338999728,0.3444916230765667,-6.909315116926452,0.6540695516562967,6.41479617511015,-0.36709778242987123,-0.5933515949028441,0.02713714520939985
1.4501953125,-7.883868520548483,0.9587105774535165,5.640175814811956,-0.12506169559553365,-0.7552368942214417,0.3439246991648146,-6.8759143641622025,0.6301408612541425,6.418853593705097,-0.24247404662637834,-0.6533830570075169,0.14620352431676797
1.455078125,-7.87982727713662,0.9205469863604819,5.687394421609062,-0.18658466510494948,-0.6950625673266697,0.34287483050144246,-6.913775453417161,0.6107578238879093,6.433291751852581,-0.18368839765686917,-0.5315870233846207,0.08477350134628743
1.4599609375,-7.880552855079611,0.8534922132007872,5.72057640352086,-0.2495885520056891,-0.7554202891802144,0.46331522379060086,-6.918770188923198,0.6252962066289662,6.40991001240733,-0.18278228488916828,-0.5320439385253944,0.14598284457236313
1.46484375,-7.866244809448204,0.8390951431610538,5.725561561561467,-0.18598867882740247,-0.8760727553758717,0.34247941667452564,-6.908958850916234,0.6155028113166671,6.4427143859019385,-0.18419916320605004,-0.41137422114228483,0.14715548216244226
1.4697265625,-7.880078931412008,0.8532809887682804,5.682999024284964,-0.12477686912370176,-1.1171887486358285,0.4039995057168765,-6.914038898462604,0.6444635791790633,6.414759813769893,-0.06272117919665815,-0.34977241444127743,0.1449598954639329
1.474609375,-7.899257519631856,0.8677094580453805,5.682636598799689,-0.1881587956605763,-1.0568747675834247,0.5246965341338623,-6.937952915209457,0.6636525433462991,6.405817313431845,-0.06499660334718715,-0.22861302705840028,0.08491529892714912
1.4794921875,-7.88956829507177,0.8821079502226605,5.682720812409344,-0.12643795851481335,-1.1773992121399317,0.5256093680616529,-6.909129474996901,0.6443475815593455,6.433568720528351,-0.003941034515550896,-0.22800737487723316,0.08353158134719808
1.484375,-7.8755416248075685,0.8582108360365892,5.706537770793669,-0.12835486525938597,-1.1772704540338876,0.6473704509811351,-6.918700437506043,0.6156705785464676,6.414530966561227,-0.003742637229248369,-0.16811951014390922,0.14533503306590825
1.4892578125,-7.8468367064779425,0.8486280086823049,5.716421865423342,-0.19132777014065847,-1.237662229984137,0.7677889973319006,-6.91846114755681,0.6250392945904262,6.447647589112143,-0.004456340197432683,-0.10778422291138874,0.14591602626727845
1.494140625,-7.851048224181768,0.8628038619229248,5.674008207845149,-0.13055208575371946,-1.3581029233210193,0.8295859141914963,-6.937720591410371,0.6395403021328262,6.424445494448738,-0.12888186755000347,0.01211782006096208,0.08865253461999853
1.4990234375,-7.88993111766413,0.8678314809490906,5.706271340520434,-0.13317236184948486,-1.4182255274170208,1.01208425767585,-6.933120209311058,0.6396812165516484,6.405516824502383,-0.12607950556728606,-0.22924322938539657,0.08630998155335558
1.50390625,-7.885179123234321,0.9063547224324053,5.724962027084458,-0.13249836998580158,-1.599267304698689,1.0116517761942951,-6.937666400616394,0.6347114310891682,6.4291145700697365,0.060319887800338555,-0.3489638719228439,0.20338971622807128
1.5087890625,-7.770307656540749,0.8920639569758085,5.769087801193213,-0.13063372293785058,-1.5994778681568798,0.8898783037872976,-6.971360634123853,0.6541002764910216,6.387271453302874,-0.0035209678170666945,-0.10820415979906635,0.20711927680562287
1.513671875,-7.746998997842228,0.8586832093308561,5.816582612024052,-0.13014597456362886,-1.4788756472882159,0.8292818880130947,-6.952317410671906,0.6349951959386861,6.382122243970567,-0.06250774342146509,-0.289863976440191,0.20675664936254412
1.5185546875,-7.7906190588293525,0.8155555274570526,5.825500996456597,-0.06983417522729324,-1.4785996622790607,0.8913782667584017,-6.961401741583843,0.6106974679020213,6.424456173615866,-0.06132816668789502,-0.47041942950218796,0.14378652631530697
1.5234375,-7.813505721718794,0.9016881759340664,5.763677559420562,0.04980208421440742,-1.1764290958383565,1.016205722240075,-6.923641524992397,0.6492996474284343,6.405493304248691,-0.11921732759524922,-0.5926783465041948,0.266423700042754
1.5283203125,-7.80417187266768,0.8777432518231718,5.778025733146758,-0.13353905092853022,-1.0563194324583798,0.9520185725587679,-6.909237856584855,0.6540053236466616,6.424230569286354,0.06629268970662426,-0.7119493415825299,0.3222939773381524
1.533203125,-7.827998801325481,0.8632277329254849,5.754232337967204,0.049781068695069756,-1.1764050226588723,1.0162214884466094,-6.856718248349945,0.6826659962362405,6.4615981772603455,0.06398307103020322,-0.590848951739993,0.2622536567416424
1.5380859375,-7.813490894793749,0.8920561165174118,5.759023497741845,0.17330441002252198,-1.1761557108585188,0.9577255990743655,-6.909130017771195,0.6682671387439133,6.443243722040068,0.062095501561996225,-0.3499121322415171,0.3258067807292653
1.54296875,-7.804097872525914,0.9065866239650088,5.782593573373935,0.1728767744998617,-1.0554895185641393,0.9579958011689211,-6.890419448007551,0.6685738843806626,6.40526661895946,-0.0012530896192301199,-0.22940566546374255,0.2671641746803295
1.5478515625,-7.813231860676704,0.9737570017075635,5.768051401381776,0.049493954925156874,-0.8144771697483418,0.956137727945947,-6.913630069981293,0.6728266393494792,6.47637210471783,-0.0028742059186154536,-0.1685961299556024,0.20652830346308057
1.552734375,-7.87489756133146,0.9589910186816066,5.6919935909596235,0.04928239301536331,-0.754078051201284,0.9562971958274656,-6.932950670778979,0.6586755606781057,6.434012492899402,0.05682933267228672,-0.04726860552863902,0.2063163390961402
1.5576171875,-7.909250460809312,0.9160117627655765,5.7292438895174005,0.04969527854383728,-0.874729818147055,0.9560355748386398,-6.971245286385752,0.6779234916611371,6.411098046078895,-0.12549244551804456,-0.04958705972671262,0.2716868998975637
1.5625,-7.9235585064407195,0.93040883280531,5.7242587314767945,-0.010623021405043547,-0.8749597686480319,0.8939573624622025,-6.951884427094385,0.6202837847739894,6.429149850450275,-0.24608217510227007,-0.11165866215058734,0.33510214751193623
1.5673828125,-7.860589515700052,0.9445939486418733,5.6969787490002295,-0.009893937542859582,-0.8147260285877382,0.833205667811701,-6.92358624864983,0.5966316620156404,6.390812376846257,-0.12391538219930678,-0.11041607641956017,0.33233700264844884
1.572265625,-7.841166585804745,0.9444947547464699,5.6831849911833885,-0.07001084945324298,-0.8753116977998185,0.7709886211321756,-6.947229311426799,0.5916762709645859,6.405215254613203,-0.12500291043045234,-0.16981622335762037,0.2093255345762273
1.5771484375,-7.841403547638546,0.9446003669627233,5.701973680801337,-0.1902379966688213,-0.9964667172080309,0.6465568316142069,-6.937813412375147,0.6444012871813017,6.415059221739638,-0.18340585772954435,-0.17184234794460573,0.39433601216152286
1.58203125,-7.8363848702831165,0.9252520427839208,5.6786484800795956,-0.252479185392379,-0.9965601890082466,0.7062454424834723,-6.937859551470387,0.6348720011132557,6.405528584629229,-0.12302308794958838,-0.11087252172812183,0.39353622298123725
1.5869140625,-7.794438234574188,0.901747400363043,5.778066836030643,-0.19144307730939342,-0.9360884066591061,0.7075756863853856,-6.918654298410803,0.6251998646145137,6.424061603671635,-0.12253140504211665,-0.23110516049306984,0.3311558493865804
1.591796875,-7.83286947839738,0.9402628013879611,5.786693219143299,-0.06790302984749232,-0.9358092954583492,0.6490844146928499,-6.866497922336256,0.6589463202862904,6.419022559319815,-0.06056234634666945,-0.23097666458239327,0.3909785433932302
1.5966796875,-7.866170943789897,0.9449421845280002,5.757967550409408,-0.0678924532746819,-0.9357843412957826,0.6490902106230693,-7.013985220634352,0.6729824950215083,6.416306056045433,0.11901474741409371,0.012831789991128568,0.327922188096708
1.6015625,-7.870708317636066,0.9785141718722458,5.748347878211083,-0.18684973952103856,-0.8760545377029809,0.40331048748993614,-6.851421437627668,0.6343897441992121,6.508229051876387,0.0034484521559570644,-0.4118517405908515,0.4490394917002807
1.6064453125,-7.856400272004658,0.9641171018325124,5.75333303625169,-0.1265314395721577,-0.875824587202004,0.4653886998663735,-6.923263817757442,0.6872562216765312,6.4672018381308325,-0.0015900691192840314,-0.04929666636422094,0.3913294581516925
1.611328125,-7.851418628340976,0.9495980088890689,5.734683452571552,-0.004713956945698788,-0.9357569043966067,0.5285285056430088,-6.942677239519903,0.6779661280536334,6.4154559536033045,-0.06442127377857552,-0.04897924213829896,0.2703015391315441
1.6162109375,-7.875423278374127,0.9351616991535722,5.724981574605458,-0.0624988008529759,-1.1171261560579129,0.3442871400777727,-6.975961558997462,0.6778789192567674,6.415875124760945,-0.1239051924468524,-0.11038704625015948,0.3323101383346791
1.62109375,-7.865778467347447,0.9399545349682611,5.725108898940882,-0.12450934973180693,-1.1775758409700476,0.4038260221990529,-6.9379148278129525,0.6875399865260494,6.420209512031662,-0.12181668804816989,-0.29143448977072256,0.3305543188790628
1.6259765625,-7.870471288560535,0.9399067250434376,5.715640114282754,-0.43302129425424396,-1.1179369994094617,0.5197365925096071,-6.933723816969245,0.6832373979590236,6.349343552649088,-0.24343150001268005,-0.4129019749447495,0.2709578303452177
1.630859375,-7.846496225135743,0.9351053189996887,5.7207310412959,-0.37153268814947626,-1.1781242212676082,0.5207923899795858,-6.971382618122884,0.601496519087863,6.363156131724237,-0.2454211389035038,-0.4718260518529006,0.08674960358954585
1.6357421875,-7.870656389777544,0.9255510466076777,5.725099125180383,-0.31098644507121653,-1.2382119776559,0.5827357956348173,-6.975883213107276,0.6299755768779967,6.405959515913716,-0.18067537275157444,-0.7130244511463862,0.14421524786868611
1.640625,-7.736154685204951,0.9303195938727331,5.745950575211782,-0.31014298231208964,-1.4796662454680667,0.5821552732653277,-6.9623455118547755,0.6641040754256176,6.330641567991963,-0.23802649883207846,-0.9554769125221982,0.20447239757884178
1.6455078125,-7.746924930458732,0.8490247468601384,5.807231377940848,-0.43150602577496316,-1.2990909983110923,0.45844468798580296,-6.938068805721852,0.6637488853607515,6.391665722167541,-0.17717619129320739,-1.0147506956435357,0.14128375755126812
1.650390625,-7.737206052048555,0.8441591202041092,5.7980074681930684,-0.37204868383843887,-1.057495810961531,0.5210781690289914,-6.928552034006689,0.6972547594172875,6.406034400513666,-0.17768500568315504,-0.8945431582076792,0.2036599644477834
1.6552734375,-7.790174789011839,0.8346084218578549,5.797231740578135,-0.19053771137375047,-0.9361387995680096,0.6467173236040037,-6.9189263379292765,0.6971833342019397,6.4200662285900725,-0.30023423515682934,-1.015562658184336,0.08284402967933176
1.66015625,-7.809583026465562,0.9020792255617132,5.834209585337024,-0.06909949310897297,-0.8754121984551358,0.7101075774578097,-6.928451161343176,0.6780356172571078,6.410559111733357,-0.2386473800647174,-1.1351434248304744,0.019075352510475634
1.6650390625,-7.809138756648048,0.9211321199625155,5.805940329458561,0.05493652212095372,-0.7545300163973506,0.5910194225444688,-6.924051981796591,0.6926952588117218,6.372906017835904,-0.11716851025114967,-1.073546244729196,0.01688507219605653
1.669921875,-7.861255920426323,0.9160146070406697,5.739382632817923,-0.13100813684725723,-0.6945124252016011,0.7093382893894694,-6.961859423031868,0.6924029075863984,6.401688253116102,-0.2402238867897788,-1.0743173218049356,-0.04155589699407633
1.6748046875,-7.908776604383437,0.9543023729456244,5.705585584591886,-0.06831048025336992,-0.815069219791708,0.649376033605628,-6.942375707077956,0.6681478159422297,6.44838009028581,-0.24025541399067799,-1.0743354338802158,-0.04155286237199905
1.6796875,-7.889435188955013,0.9879285885355437,5.710429628852798,-0.004681353742125773,-0.9357412089085483,0.5285234766201555,-6.923471443686024,0.6443744343703236,6.424313971133994,-0.30171289968429355,-1.1947273290150466,-0.16374767967680298
1.6845703125,-7.865289851238257,1.0071149203442094,5.710715606647033,-0.18683165122425802,-0.8760608035436154,0.4033030583047474,-6.923455883062846,0.6395776773314831,6.424265849666892,-0.3031104131499952,-1.074046979039583,-0.16257412199120672
1.689453125,-7.884875608342141,0.9591594293725934,5.7200277456882365,-0.3096344015370841,-0.8160292106142453,0.4010655895981784,-6.918778240621935,0.6396543637406704,6.41477157389674,-0.362787516938109,-1.1953572151599046,-0.16235605020707555
1.6943359375,-7.827798940425156,0.9064531865571452,5.754038339701239,-0.3101951946200558,-0.9366684647717715,0.46167196709683406,-6.8855320085408795,0.6158541293577862,6.39996020413928,-0.3605021858725629,-1.3165198382347028,-0.1023067338841674
1.69921875,-7.827924868425445,0.9305729396798765,5.772719252504762,-0.3073331351166592,-0.9368809740974404,0.279026801245547,-6.870973819450144,0.6204313495567435,6.43756625752935,-0.3605230059030938,-1.3165348189989354,-0.10230943476257154
1.7041015625,-7.7555405814085105,0.9255895565327776,5.755068715987022,-0.3061841695310156,-0.9973299641133923,0.21800097568446097,-6.837389053079227,0.6585393606113417,6.489421226077647,-0.18150426877876225,-0.9526417604111098,-0.10296712858289299
1.708984375,-7.765755523011264,0.887361744827463,5.787972486023201,-0.30517726964177483,-0.75608752220431,0.09681221049005143,-6.837597764556398,0.6634966876742698,6.4658833621042415,-0.12301430765570895,-0.6507731139647206,-0.04021270993893414
1.7138671875,-7.774985718070521,0.9208859222468854,5.768884029166749,-0.3076224004620797,-0.333637401384603,0.15865662650836765,-6.832780076506882,0.620402560733892,6.455955993130166,-0.12390845473433729,-0.65031050901346,-0.10141277352892342
1.71875,-7.813764890319299,0.8969909599690242,5.782487804401395,-0.30689797556241893,-0.2733332657692026,0.09793007679720697,-6.8991260716845355,0.6822327305920948,6.509309082486901,-0.005057642808480075,-0.28744051167541107,-0.039490180725112234
1.7236328125,-7.827887834733698,0.9257437084445177,5.768043635463161,-0.30614449632244456,-0.2130576213079471,0.03718438949645756,-6.918756256622904,0.6922581211438291,6.4388868954753775,0.05346043917688847,0.014447163480858966,0.023265196433521932
1.728515625,-7.842077399448204,0.9400879723761244,5.753664132613579,-0.1852542072697473,-0.27292131868617603,0.16119577072773886,-6.895057917503369,0.64454552678209,6.4098030903059975,0.050285017339064854,0.1360420734091043,-0.0979673603114017
1.7333984375,-7.8564595124631085,0.9641435048865757,5.758030208656177,-0.18618540373335016,-0.27285413881723675,0.22206820280428338,-6.904142791189603,0.6441673559299927,6.461812021463012,-0.010818302305773082,0.13541376513542086,-0.09658489632451907
1.73828125,-7.861070886451043,0.9688721200889847,5.743842696230677,-0.18639813585412418,-0.21250945950897687,0.22220759843062773,-6.932833694717995,0.6107401042945175,6.428814081140275,-0.0700995144352227,0.13388608380201536,0.027231620178802977
1.7431640625,-7.870493562568967,0.9736057314746969,5.72958074395602,-0.2472381995309687,-0.33335202029684335,0.22073282500640135,-6.961797180539154,0.6732158794310362,6.401495767247692,-0.009689899421420754,0.19487457894947963,0.026414622042485566
1.748046875,-7.846407398068933,0.954316631724871,5.7206448198443605,-0.24630582295113435,-0.33342617659904866,0.15985766919376776,-6.956980035263932,0.6540413096752262,6.401243399785333,-0.008681985852128827,-0.04556285318999701,-0.0983471656551166
1.7529296875,-7.841796024080998,0.9495880165224623,5.734832332269861,-0.42825058350012196,-0.33406845564486337,0.03450797745358233,-6.961881407030899,0.6397991501832396,6.377572931537466,-0.007274963120969358,-0.16623593104280393,-0.09951506602890245
1.7578125,-7.832373347963074,0.9448544051367501,5.749094284544517,-0.4266555291510436,-0.5151646694603753,-0.026789045807607537,-6.938486228676195,0.6736635394866077,6.34458999422073,-0.00458359477629974,-0.16763733698445318,0.0841166865016156
1.7626953125,-7.7947491965497555,0.8730096404374597,5.792287685421414,-0.42619478989428505,-0.39455771371877674,-0.08737452397505846,-6.952340480219526,0.630230552904663,6.377356925415363,-0.12714665059322247,-0.2886408729356908,-0.03669557254782055
1.767578125,-7.756318019968295,0.8729960740250963,5.797580376619139,-0.366089401112278,-0.3340073803929316,-0.02516567533322897,-6.980807654421862,0.610968774351987,6.377523729110645,-0.06358820170100254,-0.3492574676639638,0.08375036861199625
1.7724609375,-7.78448246157194,0.9352779961033155,5.763973310975296,-0.2443526201746753,-0.09230522151406195,-0.022227955378278173,-6.980444965035792,0.6298025484543568,6.429605382948173,-0.12170391784553769,-0.5313760038427661,0.14458204581484863
1.77734375,-7.852092412908903,0.9065837796899153,5.772454830073412,-0.1828606342114548,-0.15242646579176206,-0.021150384352013295,-6.966698552306121,0.6589737199390495,6.377825298999825,-0.12275708686860771,-0.5907953127438781,0.021575655820234182
1.7822265625,-7.818257850632062,0.9401686036758611,5.772825021477302,-0.18452751668131995,-0.21266632788982076,0.10045118168867272,-6.966428141110531,0.6587489219053271,6.410845678616536,-0.1817570945060489,-0.7724478835017221,0.021202532216804033
1.787109375,-7.808302077629813,0.9736991994161335,5.758731496421956,-0.24673666081287599,-0.21278263688135643,0.16012071251748902,-6.928180207373291,0.6538912620388174,6.433904489838351,-0.18018692158803779,-0.8332795675158786,0.08183106095819541
1.7919921875,-7.837169823168018,0.9352273419033988,5.744365783016645,-0.36763255385693394,-0.15287795419205652,0.03612621869357218,-6.928583155253045,0.7068482734949687,6.406130643447871,-0.18213651456246943,-0.8922307007605813,-0.1023954016385044
1.796875,-7.8561188293957205,0.9351153113662954,5.720582161597591,-0.3668960027440528,-0.09258769207300316,-0.024608391517317068,-6.933151873331709,0.6731942878138976,6.415288068948304,-0.18125599283817664,-0.8926896391734399,-0.041179365501504785
1.8017578125,-7.8470589758701585,0.9161052307070131,5.758394641983336,-0.24435186257046018,-0.09225772060172116,-0.022211516640490554,-6.942716412464996,0.7019177992430188,6.420413758026919,-0.2432204522463622,-0.89285057516245,-0.1010088652219654
1.806640625,-7.8665189394572135,0.9210336558377755,5.77686401684178,-0.24274500007123032,-0.27333955428752427,-0.08350764206306803,-6.928559000156835,0.663773802159856,6.391545958979643,-0.24410542855453124,-0.89239228062878,-0.1622066755843434
1.8115234375,-7.885112502934214,0.9207632069762921,5.724897360995803,-0.24398682771681432,-0.45420626727559593,0.0378390087003091,-6.928296097885687,0.6539876040532699,6.419752898574046,-0.24729971430741995,-0.7707902336391234,-0.2834562873625444
1.81640625,-7.846644359902735,0.9544222439411244,5.739433509462309,-0.30430427412709754,-0.4544800565257849,-0.024255248848878856,-6.93301987942184,0.6443816315760365,6.41971653723379,-0.12285754362698986,-0.8906730564972317,-0.22619487292689922
1.8212890625,-7.7983980307608975,0.94468741658331,5.726129501466166,-0.3027193837440643,-0.6355942861774062,-0.08555443452290148,-6.92819576799647,0.658688019077658,6.433952611305454,-0.12375366825911546,-0.8902162834916199,-0.2874092658778302
1.826171875,-7.81820592277354,0.887205478411293,5.7495762684466,-0.3039185437208928,-0.5751586829515427,-0.024516349731162238,-6.880600058301852,0.6444223319566593,6.433209430964658,-0.18464902715386497,-0.8309989278962713,-0.22421345423507857
1.8310546875,-7.799293950237583,0.8921467401837552,5.7780355069072575,-0.42553011989002854,-0.5755809013933348,-0.08779656162643361,-6.847214323386486,0.6013708414087778,6.427639969514992,-0.1853576162859069,-0.7706791027751075,-0.22361291955716156
1.8359375,-7.784630529097202,0.9160930864321964,5.768756704831324,-0.30382692175285847,-0.3338975218566629,-0.0848545566168489,-6.885154301305925,0.6538107036058831,6.461668738021422,-0.12408933504213696,-0.7101541988796074,-0.16322472864455095
1.8408203125,-7.794245686273792,0.8920361317841985,5.759321257138464,-0.24394358847778008,-0.21296489109508066,-0.022490013093995613,-6.894803609705252,0.6730370429717759,6.452546592901527,-0.004717085244226686,-0.4675309448233477,-0.16366204540874513
1.845703125,-7.808746280205598,0.9161444704027765,5.773081677990037,-0.18571081110358978,-0.15225655922714004,0.16147542249260802,-6.899604108808707,0.6395757413196096,6.433400835873351,-0.0061092319276120875,-0.34684348081629646,-0.1624813038330989
1.8505859375,-7.82793969535049,0.940204999096531,5.777373314183479,-0.24558815078054247,-0.273169851682172,0.09911570756953689,-6.871044113641593,0.65397653482381,6.4426203048871695,-0.0059235585409375974,-0.28698756453071317,-0.1006841704078938
1.85546875,-7.866259838098438,0.9642327064153725,5.771972846171328,-0.30822794368644735,-0.15257223705098918,0.15907346543352943,-6.913466954825068,0.6344204690339371,6.48070433006911,0.05393356677303027,-0.10577644540080747,-0.03910960159681579
1.8603515625,-7.84206257252316,0.9304559129594699,5.749010070934862,-0.1856943039617847,-0.1522357280596985,0.16147765245212456,-6.937527440556378,0.6393797321087387,6.448031479889246,-0.009410140824263894,0.014758636825829442,-0.09775984790071154
1.865234375,-7.870982245919886,0.9449471807113035,5.757893110560253,-0.24630789968855024,-0.3334141509686757,0.15986167189136202,-6.942499106514794,0.6586827578838186,6.429415058999199,-0.009082550193347123,-0.16533155564854543,-0.22194283376181986
1.8701171875,-7.845814993484428,0.9540526011842376,5.673673095799489,-0.24345725567508394,-0.33361877384716687,-0.022774386640390398,-6.942522176062414,0.6539181148497956,6.424649740443995,-0.009273273933336776,-0.22520818733705297,-0.2837383190917813
1.875,-7.826710472648076,0.9492825943778553,5.683386755367969,-0.24346442938944096,-0.3336311357204512,-0.022776491504083618,-6.947346287487783,0.6396117273481741,6.410413666372331,0.05467437224950093,-0.16608457471885907,-0.03969463015903894
1.8798828125,-7.827406531224436,0.9399673716099609,5.735098762543096,-0.3052662820786328,-0.4544196420187508,0.03662550975200812,-6.9759218432780745,0.6300076908828142,6.401242318825615,-0.007479017224324994,-0.22610621168425066,-0.16131443034237486
1.884765625,-7.808057668712625,0.9495266401852756,5.730656238809458,-0.36516029637546893,-0.575351003223349,-0.025734625565528666,-6.928342236980928,0.6444583179852238,6.410222261463638,-0.005585850093625553,-0.4670385249197786,-0.22486730012535025
1.8896484375,-7.808879520805814,0.887327501315003,5.773211010167346,-0.3654177263984709,-0.5149964152559627,-0.025577943131360182,-6.938007106003433,0.6684814143899571,6.401148237810846,-0.06487191591574397,-0.46858513198366925,-0.1010623698804654
1.89453125,-7.79470471577462,0.8441134621874959,5.778325500385262,-0.36588215696589604,-0.3943102392084042,-0.02528781876174163,-6.942638066574809,0.6540144568642481,6.4104981491796895,-0.0646863187933951,-0.4087049266227214,-0.03926404717951432
1.8994140625,-7.813483447710362,0.8679891695028072,5.749736929747295,-0.24520157674099113,-0.39383090118507763,0.09886135750576615,-6.947316251790016,0.6778573276396286,6.429667426461558,-0.18564259920306164,-0.5905190120236572,-0.09946310648304363
1.904296875,-7.823091426770483,0.9738726062904236,5.786691211301414,-0.06341070669070592,-0.3328885135091196,0.22431332600339998,-6.94744770292559,0.6827504266929217,6.415563956664356,-0.2439190311768312,-0.8325057082648641,-0.10041880816999806
1.9091796875,-7.832269693971218,0.9544336584452778,5.74435400141426,-0.12345233463401131,-0.15214814063830598,0.10178739783088663,-6.923742397655908,0.668518789588614,6.400968593028999,-0.12354329745847446,-0.8303382231410159,-0.22561033313533646
1.9140625,-7.879997551428584,0.8965592485080675,5.692199370827973,-0.12157927059029876,-0.15222235426110478,-0.019939078536255702,-6.933120752085352,0.6636007737362163,6.415191826014099,-0.24570587943923627,-0.8315894456631315,-0.22283410551353172
1.9189453125,-7.865882054097574,0.8918734470471785,5.715930107760759,-0.30477324458662075,-0.33376070678213776,-0.023951325598452037,-6.928234398167269,0.6587201330824755,6.429235414217352,-0.2450164370596967,-0.8919343995842057,-0.2234201111248319
1.923828125,-7.860515515558285,0.97343732078371,5.701546589227408,-0.3655678743663366,-0.45463882163969127,-0.025453940369220784,-6.99016348207798,0.6347349587181803,6.406187282162666,-0.24678043578081266,-0.8909624506426302,-0.3458430326435114
1.9287109375,-7.856296618012802,0.9736963551410402,5.748592753121433,-0.2411126220536531,-0.4544479783480416,-0.1448205892914669,-6.980947700030467,0.6541395877015521,6.377956822314569,-0.3071434259502642,-0.9519343508018769,-0.3450401085592555
1.93359375,-7.86597846273123,0.9737327505617103,5.75314104582761,-0.4862290202268793,-0.45511513583442653,-0.14960922369855745,-6.856556218742309,0.692098940289834,6.485280405635058,-0.183851211460242,-1.1313369197892773,-0.4107885983046014
1.9384765625,-7.865933981956095,0.9448365723117468,5.739178860791459,-0.6072055477221663,-0.6365281963243137,-0.2132894461064478,-6.966452296206741,0.7018233932404397,6.425430363084765,-0.06145309741732075,-1.0701204489313623,-0.3517813150955931
1.943359375,-7.8606265493917995,0.9494231798772321,5.701654366041833,-0.6654176460599039,-0.6972360480156209,-0.397261173344984,-6.942869304825306,0.6302875837085852,6.3725199651393645,-0.18309246496144516,-1.1916002853026015,-0.4113629645088467
1.9482421875,-7.832617689638534,0.9305251297550533,5.763250467846633,-0.7272316549501534,-0.8180414399887782,-0.33786116429890617,-6.9330660185170805,0.6348523455079904,6.410185900123381,-0.24329984880953806,-1.192702650447543,-0.3487666718296551
1.953125,-7.813720409544164,0.8680947817190606,5.768525619365244,-0.8474208718549899,-0.6978889662402963,-0.5225959640523961,-6.961657677704843,0.6539646232660389,6.410737675555485,-0.12082256973590366,-1.3715227919762745,-0.4757329773887204
1.9580078125,-7.8278285270335175,0.8872154707778996,5.749427388748291,-0.9108002906278673,-0.6375763722218706,-0.40189982103187866,-6.947881229277405,0.7213813950421862,6.378211351696365,-0.06130677754646321,-1.3101007874420934,-0.5377550057420364
1.962890625,-7.837813953885855,0.8729489938709363,5.772829037161071,-0.791096267829312,-0.6370322546303063,-0.21686477276206223,-6.909957354755439,0.6976578470684892,6.353905706168753,0.0013623074335379385,-1.3702973160639171,-0.47850678939216407
1.9677734375,-7.775711363255242,0.8923329836997452,5.815985085388928,-0.6697050516579313,-0.5763424751524676,-0.1534715252572715,-6.894717754890624,0.6346951006658689,6.447444424076604,-0.18352245568471146,-1.3113980659683084,-0.5349585320875351
1.97265625,-7.790078582103371,0.8682546221809874,5.801778025442428,-0.5492731150721303,-0.5155115536457091,-0.029169023551364852,-6.884991728923995,0.6393240904749089,6.475675964884419,-0.12404872614092283,-1.249977822234269,-0.5969743783938096
1.9775390625,-7.82815431593413,0.8681097702689706,5.76830229981778,-0.5504306849421159,-0.455073319703146,0.031857207517443316,-6.899805854135731,0.6780140256399692,6.424351413433969,0.0006225423770937957,-1.3099721320388695,-0.4779221948555071
1.982421875,-7.8229283978367175,0.9064217873197786,5.749415607145906,-0.3679516349399283,-0.33383339592123173,0.09659431982157289,-6.876270630172421,0.668707601593772,6.390935382913309,-0.003434269879433542,-1.1879158558185758,-0.6603729417873814
1.9873046875,-7.83278058408884,0.9209722795005888,5.772687923381377,-0.1853495271593035,-0.5142202037354463,0.22152116239548006,-6.900060704708142,0.6734420666348511,6.391282912350156,-0.00482648500187875,-1.067219596929367,-0.6592048095482921
1.9921875,-7.836992101792666,0.9351481327412088,5.7302742658031836,-0.2458859412276748,-0.45410890667529424,0.15958353828318322,-6.89969050639763,0.7018372408100845,6.44817800620999,-0.18859044251776302,-0.9488950551398806,-0.5926661895411531
1.9970703125,-7.846577739602626,0.9688307284850113,5.739368843373654,-0.3674730359898887,-0.4545191447056134,0.09629964581838871,-6.856639902459759,0.6347626538574698,6.451682568413116,-0.18841896386059895,-0.889044447087503,-0.5308495579677345
2.001953125,-7.799086709495602,0.9498070814133657,5.782474014957125,-0.24377062984449813,-0.5146223960865967,0.03767247836920989,-6.89012596726434,0.6731137293809631,6.443052317131375,-0.07062868590038941,-0.585603098873512,-0.5919186909496901
2.0068359375,-7.789204936635119,0.9544943050118011,5.763812649674602,-0.24493532044100286,-0.45421915013727676,0.098688574794307,-6.894850291574787,0.6874273140882976,6.452690957302835,-0.010949027358337625,-0.46429355022914076,-0.5921397575863856
2.01171875,-7.842077399448204,0.9400879723761244,5.753664132613579,-0.30664710918109317,-0.3336652805300861,0.0977831661614233,-6.890141527887518,0.6779104864198037,6.443100438598478,-0.010440551463388553,-0.5845126702052448,-0.6545193685671001
2.0166015625,-7.833076719139363,0.8826024601583508,5.78225471109343,-0.30478777258816264,-0.3337906984917308,-0.023958439262290823,-6.89950377891949,0.6442761563439976,6.4476005486047585,-0.07381274335302737,-0.46399050631498956,-0.7131633311917067
2.021484375,-7.832188246746065,0.95921008357251,5.739635273646888,-0.3049554388092584,-0.27346875054787745,-0.023841607713129633,-6.933089630838995,0.6540072596585352,6.415095583079894,-0.13397621459559164,-0.4650543934771574,-0.6505671589252865
2.0263671875,-7.8657858471891045,0.925519647370311,5.72047639262505,-0.30453511449119625,-0.39411378312646095,-0.024102052396585277,-6.93780536067641,0.6300431300695976,6.410197660250228,-0.13378500270098537,-0.405171880573801,-0.5887654296855486
2.03125,-7.875327004223929,0.9303060648641498,5.715608785159369,-0.3029296311008417,-0.5751976086119603,-0.08539784180326529,-6.956816377333412,0.5917155821751162,6.395900623624897,-0.19327057320925936,-0.46658582252997954,-0.5267453769116197
2.0361328125,-7.866000669497933,0.9689299223804148,5.753162601190496,-0.30450871697314214,-0.3941344245588148,-0.02411901124091547,-6.947268484371891,0.6156279421539712,6.4101730590368176,-0.13169112656375412,-0.5861848274306529,-0.5905226454863486
2.041015625,-7.850848430523173,0.9445311501671398,5.687733283889566,-0.3655876252670395,-0.4546326203625939,-0.025444730393550906,-6.933081036365964,0.6157295453622631,6.400559020078767,0.05173768221498869,-0.5244317136749005,-0.5328897108638291
2.0458984375,-7.9472151608065555,0.9398810517600377,5.695660387078327,-0.3658691751743261,-0.6355261881618105,0.03503211426243481,-6.918453638632369,0.6346006946632898,6.452461029134449,-0.0679641357673356,-0.586970607202434,-0.4082837375994683
2.05078125,-7.855615386361486,0.9926436373255891,5.701534807625023,-0.30370675472524655,-0.8767985123053842,0.03564081546540673,-6.937526897782083,0.6154601749241708,6.438356478377529,-0.18852422519910178,-0.649013540467251,-0.3448786725326524
2.0556640625,-7.7650521518349755,0.9496136898058621,5.754812059474288,-0.6048910064868549,-0.7574125403879595,-0.3353432159801392,-6.942582790232243,0.6013464714514543,6.395817221777256,-0.18888873003198575,-0.7687589863808206,-0.4684660407530556
2.060546875,-7.747332233826228,0.8636444558365318,5.8447440910880895,-0.6056027976549335,-0.5763889524894186,-0.33490683861924686,-6.9709732468672785,0.605940022073711,6.415093421160457,-0.06724349044116365,-0.6472683534836843,-0.40886781120583643
2.0654296875,-7.766451447104165,0.8010428528344591,5.811846344577565,-0.5478564659109094,-0.39495812699814414,-0.1506298847839492,-6.937773696655758,0.5965300588073487,6.400426415804306,-0.003685367890409981,-0.7079261121048678,-0.288413541560846
2.0703125,-7.79437161427408,0.9161558849069298,5.778002169941988,-0.36445350574600693,-0.515083348462083,-0.08646871128013478,-6.937797851751968,0.6396045301424612,6.415011100272535,-0.0015900287485621533,-0.8889502049830477,-0.29018277519106195
2.0751953125,-7.823032119070303,0.9353443686238055,5.768074964586545,-0.24420861981128236,-0.3939180719192869,0.037960410105743664,-6.951829150751819,0.5676157993611957,6.414468923047841,-0.06426754402619829,-0.8287623783774197,-0.34940524702835674
2.080078125,-7.837384443751658,0.8631321130758383,5.735294768650945,-0.18245568838007586,-0.2730957083714613,-0.021413608375556562,-6.908958850916234,0.6155028113166671,6.4427143859019385,-0.0016132367636480095,-0.8889723983172683,-0.29017648905718524
2.0849609375,-7.832528728088263,0.8727327732551262,5.735326097774331,-0.18215273487341505,-0.0921468616137409,-0.08187864780643,-6.89458630375505,0.6298020016125757,6.4615478938738065,-0.06549384539367523,-0.6482532048057346,-0.2864451823109626
2.08984375,-7.836962447942576,0.9158840139078996,5.72096614244575,-0.12062755418979862,-0.1523286786872319,-0.08083293326644561,-6.866103568929535,0.6442670231264112,6.461332968711422,0.1188211248166485,-0.5869744148341784,-0.16760345129082044
2.0947265625,-7.856037314928837,0.9013899018809729,5.701944359519837,-0.18220968846848187,-0.3334314117522022,-0.02156004156719376,-6.875645038515202,0.6777551775895556,6.471223976345241,0.24097949587520878,-0.5857145555209744,-0.1703907616709425
2.099609375,-7.846451811602337,0.94471097536228,5.72068793057013,-0.24303029630769188,-0.4543053054822741,-0.02305314911850931,-6.894564862530313,0.7063253162003023,6.49533821696416,0.11564148772835686,-0.46535678095538874,-0.2888726219757371
2.1044921875,-7.850885531456651,0.9878622160150534,5.70632797524155,-0.3650459101190009,-0.3340362716402069,-0.08606084702573977,-6.904328975893448,0.6778088832115118,6.452714477556527,-0.13074692375517316,-0.28683542890667574,-0.2815489130899587
2.109375,-7.775185713454305,0.9546641378403344,5.796916176053476,-0.36383792882235233,-0.15320173900860312,-0.20740813960065968,-6.918708489204779,0.6300287356581717,6.419392528050635,-0.13023018782897142,-0.4070365397868949,-0.3439209309489885
2.1142578125,-7.79918284916234,0.8776590464776785,5.764008655782451,-0.23964028238927204,-0.09261115817999528,-0.3265993559569231,-6.914000268291805,0.6444314651742458,6.419477010857995,-0.00877083252620191,-0.34544429095257195,-0.34611497118450196
2.119140625,-7.828080315792364,0.8969531424108075,5.772870140044957,-0.11888089094334418,0.14916526224552723,-0.2627719458921733,-6.8855491974869425,0.6924095579503302,6.429033330141532,-0.005593562815700941,-0.46707274315563974,-0.22487299094714377
2.1240234375,-7.8472145577205366,0.9594891026630535,5.786383678144294,-0.1815816834167439,0.028438097238709263,-0.14250949137829153,-6.9042281032299355,0.658589741051332,6.457239188776218,-0.00859691888345454,-0.28557897933236887,-0.2843234008026221
2.12890625,-7.875312244540614,0.9591758400600501,5.724873797791033,-0.2424196918294449,-0.09238213240873334,-0.14397604043485196,-6.937688927389719,0.6060272308705772,6.4146742500028155,-0.13511744688287458,0.015358739058409319,-0.339814254735487
2.1337890625,-7.870441634710445,0.9206426062101286,5.706331990925319,-0.18116483336478886,-0.09220060177913526,-0.14276508113199482,-6.9183372053456775,0.6105847954642695,6.456937618887038,-0.06879056047789048,-0.2866575252341577,-0.2217157959543971
2.138671875,-7.865726606730655,0.9254932443162477,5.715779220220564,-0.1187172426014676,-0.15244659423761153,-0.20258844167278534,-6.913683175226681,0.6298163960240015,6.452353026073398,0.05495939001415167,-0.34620759311980875,-0.16387224998178776
2.1435546875,-7.836947688259261,0.9447537891038,5.730231155077414,-0.17700724868724904,-0.45447993615955096,-0.3262507668123325,-6.932842289191026,0.6490178185907897,6.443350644141401,0.11445950303143372,-0.28476346491750965,-0.22589144587328905
2.1484375,-7.870449149035562,0.983211387837288,5.72953763323025,-0.11569664482788505,-0.4543033779309764,-0.3250609243674752,-6.956530948288939,0.6106135842871211,6.438547883286222,-0.009984429972848987,-0.16485809338727597,-0.28314652213067265
2.1533203125,-7.822113925585185,0.9541860385921009,5.702228329472186,-0.1786038296767368,-0.27339827997628935,-0.2649579696109549,-6.908997481087033,0.6155349253214846,6.437997188813838,-0.00840179538588283,-0.22569370056930366,-0.22251626845572137
2.158203125,-7.784630596338932,0.9545949210447512,5.782675779141705,-0.17744741997643868,-0.3338448657360161,-0.3259878485844346,-6.9233083285297985,0.6059682640547815,6.428646196485275,-0.009985436173345625,-0.1648795455353507,-0.2831397834368281
2.1630859375,-7.727109725846164,0.9594434072426601,5.802336191586628,-0.29855163130743456,-0.21367560003789568,-0.4498735348037852,-6.923571230800946,0.6157544621613678,6.40043925689087,-0.00768179283017813,-0.2860190093721276,-0.22310084556220947
2.16796875,-7.74190638758676,0.9066800919064453,5.811744325839871,-0.23583851515489873,-0.09293431177409525,-0.5701358066727041,-6.899673860225863,0.6492013694021083,6.428779881719454,0.05078285017443895,0.015825114399251546,-0.16035415763675362
2.1728515625,-7.761529178382392,0.8635538321701884,5.825732081922677,-0.17493595678471544,0.2692358556331846,-0.6289657011237975,-6.908811839157481,0.6058129552245334,6.456769734232038,0.0507619880991123,0.01583002526930425,-0.1603493645711333
2.177734375,-7.8192054962420805,0.8250855487032105,5.80622255701795,-0.238994087886202,0.5106181326663424,-0.5078261816773691,-6.904582198142975,0.6014782526526902,6.390620971937564,0.05308187216434721,-0.10530709327077578,-0.10030298614722974
2.1826171875,-7.843262006892025,0.8251105296197272,5.805850357772176,-0.056099644591543346,0.5112049024685079,-0.4433515757585339,-6.904273156776587,0.6012213406141502,6.428358548642377,0.1150309253253464,-0.10514653301657308,-0.04048507759438139
2.1875,-7.871233900195273,0.8776811831191018,5.753497713236155,0.12726447683247222,0.3911043925185914,-0.3791681354213195,-6.870849877239012,0.6059768504305868,6.446856287304245,0.05235008779871784,-0.04499757304491613,-0.09971854418297249
2.1923828125,-7.885401190901349,0.8583264406194494,5.725177580713307,0.004913980939469432,0.33044825197597455,-0.3816913490667603,-6.880391889598974,0.6633845620782991,6.46642229644978,0.17171451439069724,0.19762014929192565,-0.10016666716149258
2.197265625,-7.857007301789019,0.8585076879521362,5.763201599044133,-0.1806126941326403,0.2697119321155448,-0.26367307141556395,-6.885440815898988,0.6827518158630141,6.43837148138353,0.23001787714713753,0.43961452086141595,-0.09921241275987387
2.2021484375,-7.87103397205322,0.8824048021382073,5.739384640659808,-0.05920115688096393,0.3304611018969317,-0.20026441394284408,-6.861596550569289,0.673188479778277,6.442693027567683,0.049063667994579875,0.3165710675474944,-0.03500232651241079
2.20703125,-7.837177135767946,0.8822906196928939,5.725814202390431,-0.12143636204768919,0.3303408809816318,-0.14058739882429921,-6.871067183189215,0.649211891789787,6.437854986331966,-0.014301942098067452,0.43709400593718806,-0.0936473457251201
2.2119140625,-7.842395606781971,0.8199116556274814,5.735414327067755,-0.1832694472101016,0.20958105814666644,-0.08116376399448821,-6.91361396658382,0.6441103251260707,6.466648981739011,-0.017296593483980778,0.6186027620396036,-0.15310717416385788
2.216796875,-7.861307646559656,0.8534722284675738,5.72087416291748,-0.18449103994056357,0.028696156357933246,0.04016876431432716,-6.923324974701566,0.6586041354627578,6.44804432097581,-0.01918552475744794,0.8595087455702968,-0.0895538679007288
2.2216796875,-7.847377317687384,0.8729325831834797,5.767982985058275,0.06041811255955249,0.08968520118015798,0.0450853975744302,-6.923191895243108,0.5819523648557613,6.433122786237862,0.1031563298231116,0.9206478879374101,-0.03051754263830094
2.2265625,-7.8615372285518,0.8680127282817773,5.74429535885126,0.12074903277736596,0.0899353780828583,0.10716706132274985,-6.875821543197428,0.6252798762056669,6.428239866414198,0.1658261416631715,0.8604391385685886,0.028716189323642373
2.2314453125,-7.8566666859633605,0.8679813290444106,5.739672626295928,0.058519473157860075,0.08983198992895962,0.16684781066967558,-6.8947719456846,0.6395239717095269,6.442775348455606,0.04157341126899589,1.0402137275295114,0.03324589135955448
2.236328125,-7.837073481776089,0.8918698730014217,5.721073919260174,-0.12414132694563433,0.028902691358600432,0.10222824705349744,-6.908874081650195,0.6249999833798957,6.456962220100449,0.16042220296859402,1.4030563147646173,0.09519576016335766
2.2412109375,-7.85167772969975,0.9063989583114719,5.739574623242003,-0.06453141034921234,-0.031134974794879595,0.22503963536324326,-6.9089288152184665,0.6537484116081216,6.461968145991166,0.22150279842469622,1.403682398078385,0.09380029503845241
2.24609375,-7.856163242929126,0.9255096550037043,5.72062527232336,-0.1279127883158087,0.029171451515268017,0.3457342904473224,-6.866072990457472,0.6585930662332978,6.470911727288933,0.21742371095828725,1.5257193453625664,-0.08865493355471302
2.2509765625,-7.856363103829451,0.8822842013720439,5.720819270589325,-0.0032655228118922907,-0.030952208177116688,0.22624728083218548,-6.9611844356336405,0.5674624265428211,6.4334574745881445,0.0942735365898488,1.7649730255478493,0.03889855572269376
2.255859375,-7.865778332863988,0.8629508657431516,5.6972707503201185,-0.06485252356030746,-0.21205862986194415,0.28552064997558396,-6.942643947176368,0.5726943852376808,6.3766597046222335,0.1573523053522327,1.8245474851286017,0.221735236404463
2.2607421875,-7.885453051518142,0.8727877312714629,5.734507259433626,-0.06514137324021295,-0.39301148213779585,0.34597860062690655,-6.956717132992785,0.64425511156864,6.429450339379737,0.21752768662630823,1.8256377454223305,0.15911335559003584
2.265625,-7.856348411387866,0.949655811180499,5.744003357531371,-0.1273278062072153,-0.39315909761480866,0.40562892631945013,-6.947385460432876,0.6635633985375594,6.415371470795946,0.16014301374661202,1.5831812316598755,0.2193667045053515
2.2705078125,-7.870900731453003,0.9112217712259809,5.739255308482499,-0.06701851310814862,-0.39290075409204317,0.46772033503672583,-6.928380867151727,0.6444904319900413,6.405505064375537,0.22102722368943883,1.5239208847448886,0.1561884216909562
2.275390625,-7.851818417383354,0.901648936238303,5.748990523413862,-0.12692496862781769,-0.5138280452149727,0.40536550770825874,-6.995104026790039,0.6444444704155791,6.387474618338413,0.10079387826017604,1.281815370796471,0.0954029189456183
2.2802734375,-7.81887232749981,0.8586261368100895,5.791980152264294,-0.18620508892315407,-0.8157811282724317,0.34259962544216405,-6.9903716507808555,0.6157727285965404,6.372974416677543,0.04022346186831485,1.1609697091892994,0.034416776521432824
2.28515625,-7.808997934480986,0.848878472810575,5.768686280665939,-0.06715205023393174,-0.6342204367399354,0.528051218784182,-6.999819756627455,0.6204803408266414,6.382576695508747,-0.20358480868212317,1.038244957746243,-0.022413744880713175
2.2900390625,-7.813957371377965,0.868200393935314,5.787314308983192,-0.06787149417362008,-0.6945010200333952,0.5887835112661631,-6.938523230524108,0.6019369819377217,6.310847792597478,-0.26114724332470507,0.7358841889895951,-0.023936179882649837
2.294921875,-7.784578668480409,0.9016317957801829,5.7594270261110045,-0.06902173136573508,-0.6341183025774249,0.6497877578586111,-7.062298257402376,0.6352224768260634,6.308024367221763,-0.015917804555692548,0.738018026432122,0.031694124136914664
2.2998046875,-7.8087166263555075,0.8968803515694675,5.763773554632602,0.11606573054077211,-0.45270947166852443,0.532045369468792,-6.947747607044652,0.6208100672506217,6.353614815446701,-0.007895745998964775,0.1939482771339388,0.14885370820396607
2.3046875,-7.804393940334707,0.829714970010216,5.778241286775607,0.05590873521741104,-0.5132678857146246,0.4698507742127704,-6.933468966396834,0.6878093569641416,6.382412053732901,-0.005805623979815102,0.01291136889877261,0.14708013050927746
2.3095703125,-7.804394007576437,0.8682168046227707,5.792160361085989,0.17615925665806176,-0.3921318638320618,0.5942672054765269,-6.967007593672509,0.6592306319775896,6.340087722295013,-0.06654796367942796,-0.16778188394403687,0.024294368216617398
2.314453125,-7.817584066064135,0.9831828328750146,5.735053643975442,0.2962457467700077,-0.21065963135293067,0.718804888936905,-7.004837018906816,0.6063345233491074,6.3447546359965745,-0.24819882058201972,-0.23044065962098195,0.0890908036393383
2.3193359375,-7.822217646818771,0.9831086198961279,5.720887686912826,0.2354824836593575,-0.09020767984728739,0.657009035729,-6.957257955383964,0.644704707636085,6.363409580146315,-0.18503603742452038,-0.41086979953693453,0.08593995062979536
2.32421875,-7.812920764217677,0.9254910924080376,5.725992403370241,0.17796111140387955,-0.09063101044710804,0.41231467904346975,-6.942622505951632,0.6492176998254076,6.410450027712587,-0.18366507420169523,-0.5315661339347199,0.0847637503697095
2.3291015625,-7.856711301221956,0.9738811765194837,5.7814729599528425,0.11788542692795524,-0.15120555634817057,0.35008582619260864,-6.918615668240005,0.6251677506096962,6.428778800759736,-0.2477462450476694,-0.3507291313019304,0.026707461336403164
2.333984375,-7.833047199772732,0.9403420105501512,5.800784736356761,0.054029820898610796,0.029775235988512977,0.4710690213886142,-6.890141527887518,0.6779104864198037,6.443100438598478,-0.18597225356426647,-0.4104651276838137,0.02472389976333625
2.3388671875,-7.84160340853887,0.9013749133310629,5.702167679067301,-0.006103311469032109,-0.030763745574204072,0.40887580946775487,-6.909176699640731,0.6826574098604351,6.4433880864413755,-0.06552304519949316,-0.10842097797327699,0.14729489382804933
2.34375,-7.841781197155952,0.9399559571058077,5.730178270591144,-0.18780314777370982,-0.0917609752870445,0.2833722041364855,-6.890086251544953,0.62524250100701,6.428419511196044,-0.12781109808680535,0.07150005076909942,0.21166954474655605
2.3486328125,-7.861248540584665,0.9304494946386199,5.744015139133755,-0.1265260636856474,-0.09157973509899216,0.2845747262064618,-6.908818262533334,0.5484124407825341,6.432606291186298,-0.13189287572603847,0.19358406495942104,0.029222841891586342
2.353515625,-7.85158883539121,0.8871084364240996,5.725569327480081,-0.0659264572953967,0.08962255703020003,0.2862040157617422,-6.93235402927094,0.5816384220132991,6.475697323218675,-0.010063130762188878,0.37494444467212756,0.15061037116290518
2.3583984375,-7.861085511650899,0.8629986756679748,5.706739534978248,-0.1880641050506567,-0.03137742763896041,0.2835417712804242,-6.870734529500911,0.6298000656007021,6.4706828800802665,-0.13183275063995228,0.4933990198562559,0.27698169146215207
2.36328125,-7.8849199546338165,0.9110519383974475,5.706151782103625,-0.18547945354773623,-0.2125346149258591,0.16135487576393123,-6.909013584484506,0.6442512395448929,6.447720311792656,-0.13282428598109106,0.7338626773196937,0.40174202696524347
2.3681640625,-7.899161447206847,0.9783593275936223,5.715021032284746,-0.12415486035185745,-0.21238192591749955,0.16253140921427076,-6.937357359250005,0.6344545190506281,6.466852146774549,-0.07315016881600428,0.8551885061716221,0.4015215828910844
2.373046875,-7.8846089254165195,0.9012878637104762,5.6780118584024715,-0.12398816063287176,-0.27269892733459195,0.1624185471983936,-6.875651461891055,0.6203546631475563,6.447060533299501,-0.012074388504774455,0.8557771791543697,0.40014636735769593
2.3779296875,-7.884712579408376,0.8917086104019484,5.682752141532729,-0.18462263438873386,-0.4538867986531648,0.16080647056937206,-7.004442665500094,0.5916552261892282,6.387065045388181,0.16752143662120075,1.0995819992713396,0.337107379603013
2.3828125,-7.90423185069561,0.9351652731993289,5.7198377631060415,-0.12382784374179474,-0.5743423019570344,0.22258981435497696,-6.942591384705275,0.6396241857477264,6.410353784778382,-0.012547420639626255,0.9760445596975862,0.46251976658826244
