sensor,left_sensor,right_sensor,left_sensor,right_sensor,left_sensor,right_sensor,left_sensor,right_sensor,left_sensor,right_sensor,left_sensor,right_sensor
axis,acc_x,acc_x,acc_y,acc_y,acc_z,acc_z,gyr_x,gyr_x,gyr_y,gyr_y,gyr_z,gyr_z
0,0.8808107066241624,0.3115525903932168,2.7622080650315652,-2.398646095075656,9.408650477990726,9.513275480139699,-0.11240170597252427,-0.3230373811130934,-0.032157165192030705,0.0846041735673653,-0.06226105420289057,-0.025288150801127122
1,0.8850068718083526,0.3170229232786348,2.7464479074593267,-2.3632936546607954,9.465895052346951,9.584279290783856,0.07392088948359386,-0.07596053258325086,0.10110775335567757,-0.03585121580732662,-0.719601252309898,0.1520901882802781
2,0.8657773098030225,0.35507165946691627,2.6861056140749517,-2.4019455505965057,9.436032779043474,9.570156365021885,0.07418249919722948,-0.20037800867153388,0.10232350774831446,0.20653779210525672,-0.7796844864032578,-0.028626157177469178
3,0.8761276320269424,0.2881055678310076,2.771787286697146,-2.387612848037977,9.403942719542204,9.565812689489617,0.009969321856058252,0.34791244878390454,0.029009751651549554,0.07557390648400186,-0.12064467267943328,-0.39020214436266915
4,0.9282671736202427,0.35008149834861885,2.6822856540362365,-2.3884026980124835,9.393766058836185,9.541390803938155,-0.11080539644485839,-0.2605335999971613,0.0345366030884968,0.025164476673931863,-0.36153078027637653,0.09389513986510524
5,0.9483155103745861,0.3833088836848994,2.8053383006144963,-2.360889300443834,9.371929456289706,9.502528999220791,-0.293204152790805,-0.14028638522648298,0.09758880053731242,0.08179527605301105,-0.42174673132593893,-0.1463602217195019
6,0.861524230566927,0.3354097316463973,2.734039364446891,-2.3894159598077667,9.407971536279277,9.50338088734383,0.011696114210007769,-0.3243073729311586,0.27569594327814073,-0.03985358073409046,-0.29725942878870626,-0.14232083479069121
7,0.9186624796272359,0.33505799051888374,2.751525278542018,-2.3858194165355737,9.44729014231293,9.4604012982951,-0.1121790202563368,-0.2622103328834281,0.08825181989116793,0.32819301118485095,-0.00046868460223779975,-0.08923578448039798
8,0.8662767109695726,0.326022458961991,2.7293045776582203,-2.3982858565266842,9.407966700861776,9.527445288650805,0.1294801088119694,-0.19735279948932832,-0.0418891552313606,0.02792156033746506,0.35939516209003597,0.2715654001090411
9,0.8812433739229114,0.3593933648682611,2.7312373231586373,-2.3939793612894853,9.336425346561185,9.512760564511346,0.07036191149895747,-0.13659393819198265,-0.03330136640591946,0.1490870685508787,-0.061158038770852394,0.2095012292732736
10,0.9238715420606214,0.32116511223645355,2.817585913465356,-2.379579204879323,9.443550309763443,9.512916397918069,0.25286886963591426,0.04367761554688194,-0.2157492437997431,-0.0414702431301351,-0.12252459592105747,-0.1467203064020574
11,0.8957481109702612,0.34949915497366,2.8010251881056183,-2.3808177975203115,9.36636228362031,9.469735690690625,0.06874093374226484,0.1092795320863229,-0.040370704269142896,-0.09586823259595503,0.2990391431451013,0.2698367271986217
12,0.8662620816659525,0.3588100521578404,2.747746766445039,-2.419537147307655,9.422593280826861,9.451113255989661,0.19350753155341596,0.22895248633777174,-0.14867083802211573,0.08218785014876206,-0.4222335410862524,-0.03182707951760796
13,0.8995153495683768,0.38808450182159604,2.7191803935953067,-2.4129998479000614,9.427411683446662,9.517529651446084,-0.053097159685218484,-0.4450744433059761,0.020080416702396797,0.20862550253674364,0.35913676051170834,0.03380873838149965
14,0.8805341521775094,0.3830666059247626,2.715100217292209,-2.361672928339407,9.407952194609269,9.473920869520928,0.009640968348671184,0.4135614441512401,-0.21176504385987255,0.14362576146173228,-0.2442050483802191,0.024537164482050195
15,0.9292383205086776,0.26382663237416415,2.7639727964288383,-2.421878350726988,9.337564074134646,9.533132060230376,0.01025999298315209,0.1669358874212954,0.269839923829314,-0.10222889732363727,0.0028846133965383944,-0.08782785368516549
16,0.9329481106673629,0.2920808851934536,2.728166648834085,-2.3902354661561582,9.4375711349758,9.4704075050438,-0.05226310951323473,0.05152838571698078,-0.3353006711015877,-0.39563961630411093,-0.12623596740699455,0.6320851080913165
17,0.9096173071778341,0.311703402722745,2.7485999491362234,-2.3697529750838178,9.384918839479313,9.522407156379366,-0.23561284062488366,-0.08143085587106434,-0.09682471368669458,-0.044985986558118266,0.17619002726905517,-0.38315549924098213
18,0.8954986775807486,0.35428741795851015,2.772493179256055,-2.395013673350644,9.375508157999773,9.474661143691137,-0.0524044755500678,0.10868457743310377,0.0831780220615117,-0.03565792571939268,0.23997730938743736,0.20941619499061662
19,0.9092128297112753,0.33587190547674967,2.7704164216672296,-2.364249987737383,9.447439469824227,9.550724131015583,-0.5986399372178415,0.41465153986716136,0.09605431000944482,-0.16044164261447652,-0.24361344637483173,0.14815031023402964
20,0.8853549696105308,0.35460316321248725,2.742939973612164,-2.446068858479836,9.422783424171291,9.527850720962524,-0.48050904290054997,0.1075176773643756,-0.33957970129463355,0.2072103902607894,0.23119310076192273,0.0866586401964136
21,0.8142055064066481,0.31620900832076887,2.851380753427755,-2.3848630834589857,9.432979426547318,9.493956458063373,-0.35380063743287676,-0.01644052362429714,0.39837019499543563,-0.10040152984435477,-0.23773507762417898,-0.026097886645597063
22,0.8605802047356323,0.32593002419592054,2.6709280609440817,-2.4033190509407607,9.474017678741738,9.517976639916455,-0.04883627905008601,-0.0790338084320971,0.21767275310396864,-0.16336606328364098,-0.41857549591317106,-0.14337319230615717
23,0.8998634473705551,0.3351441028608775,2.7156724597481436,-2.399743557934444,9.384300055271005,9.47490754664184,-0.2995620361013461,-0.506428423313878,-0.40853587674152064,0.025203482202085487,0.5915804959757167,0.03735242060921575
24,0.8994209602559105,0.39294281788259544,2.640299903365174,-2.39856381303708,9.383182801860675,9.522050737452975,-0.29674135310502747,-0.26294222941823125,-0.1571449167831059,0.14356348789229842,0.17485914820216966,-0.14585298817712058
25,0.8808253359277824,0.3641018379351942,2.743765876244747,-2.3752937599080006,9.394023898025637,9.498142169552725,-0.23280913498063885,0.2307638521086174,0.15451506916700034,0.08523883465655491,-0.2404980338230138,0.1465974443344219
26,0.8384569553830058,0.4025266356118342,2.7784275389276316,-2.374855542374457,9.341321115861014,9.516856239115766,0.13002818258293103,0.10615601931284298,-0.15881236688142575,-0.16211821522360956,0.11755738975032413,-0.02655550835558779
27,0.9190956813135098,0.3354904908997763,2.7066894825532324,-2.3891547505092423,9.365290681460618,9.512916930577118,-0.11314317249122113,0.16875737485233627,-0.15485690264042679,-0.09916908517999454,-0.0040101047483018315,0.09066079129942049
28,0.9515963739471969,0.3495735918029622,2.70344751608167,-2.3995139240347343,9.475741342600992,9.484309333536302,0.13055438280776024,0.16992367721881715,0.08203480158465158,-0.2808021332421578,0.24114916226732316,0.21245650615044334
29,0.8707661974541354,0.34476830021680577,2.6867498625750903,-2.3759046826225587,9.412185660943276,9.474481069921273,0.25039471227338306,0.0437113635661602,-0.16655966972082206,0.019747563808041515,0.4784399282402453,-0.14763570151660083
30,0.9618371431675056,0.29212223415560495,2.7425559413764073,-2.3569621749965544,9.423823310901593,9.4651677219346,-0.051797772001702304,0.1663102916924192,0.08553124930929662,-0.22569118844942412,0.11996915204661963,-0.1453491638550839
31,0.8664144538053741,0.37352316782221323,2.7667235556437557,-2.385250594352768,9.418090171975276,9.483883389474785,0.313883255191022,0.10382475025560986,0.023541391621054154,0.0786866221028258,0.06133230443131956,-0.26824276264089114
32,0.9285990389562262,0.29257176313780386,2.7388150713234634,-2.3697108745520654,9.394603998893933,9.522586164831134,-0.17176769900314345,0.10503637612174255,0.034889341531189305,0.019470660501369374,-0.36187631645032603,-0.14841733762768086
33,0.87123901195107,0.354344826186506,2.697507933152709,-2.404296434283225,9.364501095577888,9.484331975922299,-0.052919898291157334,0.04612498529377399,-0.27798902652544283,-0.0374116842999868,0.05461938881612254,0.09119597594862106
34,0.8713464274045817,0.3306618482882367,2.7995413969435954,-2.3750894793281714,9.423426385467106,9.503223455959962,0.06811551321623792,0.2312091661054929,0.1361387342432239,-0.4035130265699179,0.6017672913017851,0.21360362558409163
35,0.8944988064725985,0.37892783138463493,2.7138253603212323,-2.425858101838958,9.451188973208714,9.57026957695186,-0.23594480955618297,0.04294559063107495,0.08087605343854158,-0.22609895795373822,0.418883004654723,-0.2033476569389945
36,0.9184260723787685,0.33107732006782287,2.7461462432532087,-2.3690114477199975,9.471132424995625,9.550836277627463,0.06963700074208796,0.7207606396402844,0.022778772431377013,0.020857002373716,0.17988040689435278,0.08217944568417576
37,0.9045449188052003,0.31158323317813846,2.747688400430135,-2.3370021025212626,9.418330801987846,9.498095286803588,0.19272708549799794,0.170678326089658,0.14708542235559185,0.08751019743774364,0.0022956720540002356,0.26624913504025505
38,0.9284304343506098,0.42143399537340687,2.779875633259137,-2.3519519498732833,9.443056675978925,9.482964106852808,-0.11633133337975614,-0.25628936075188263,-0.5278342110872498,-0.09017306131701261,0.4110007086049651,0.5121774131094725
39,0.8563959969174376,0.3642273605684155,2.7375713003087885,-2.422229983167951,9.45101817153429,9.527424244241956,0.19333985823277094,0.042362090576498174,0.44868868589713934,-0.227129638480747,0.1266710600970529,-0.2628182156794984
40,0.9329058259190776,0.33078834025691994,2.7418980528469676,-2.38888301607778,9.452127886602739,9.522497725923346,0.25182163590611123,0.23309870558612025,-0.22037516874102608,-0.21681086253787976,0.11752269090753947,0.3891779450542897
41,0.8848398703653109,0.3929554627307489,2.7459133070474278,-2.360649141411186,9.485024741163624,9.511975538228196,-0.23632303531447638,-0.017677449303563027,-0.10034667380728902,-0.041174175247393786,0.35627595207535834,-0.1459290582752071
42,0.9133401234775645,0.3646510934430021,2.7359467751022235,-2.330909242726146,9.4996223086237,9.549983856845376,0.24962025384960543,-0.13969067431786508,-0.4693780373950514,0.08281187289193408,0.41415175873528537,-0.08690430979862562
43,0.952222094971078,0.34030842733408617,2.7193173217421482,-2.374849320295523,9.413779338961241,9.512669994967366,-0.7197247524538751,-0.01886076719470458,0.1003884550451242,0.017999158523755426,-0.4244660517889099,-0.26586382712532997
44,0.9045037028319648,0.2634928891834188,2.733689696211303,-2.3945524865262953,9.41333889476924,9.485047477070317,0.0690860065991217,0.044913394183887054,-0.03916142016124346,-0.1006932351776432,0.23899492544162296,-0.026869162384606494
45,0.8670526665827757,0.3643611442966373,2.8196113889808454,-2.38392349759427,9.380598906061532,9.531653109867106,0.24865044701791367,-0.38136001514937345,-0.4729270022003311,0.028743626729256923,0.5942034388583021,0.2737921408651385
46,0.8470455458016677,0.3214594451359713,2.7105574466214173,-2.3738929872189356,9.407427415826616,9.546225154735637,-0.05104247061483805,-0.3231224147507452,0.14868128846745945,-0.09904168276649436,0.0007026807580601532,-0.02244709360748993
47,0.9044749786122497,0.3161983021435392,2.7567090196690818,-2.356492382064196,9.43281772527664,9.484016047836464,0.13112446619105536,-0.016890977727845972,-0.034895210902798464,0.32711483174744094,-0.0006886040546173884,-0.09217289834639023
48,0.9140222241658262,0.36361631307945874,2.7335080420788587,-2.4100037022094885,9.418251302814696,9.450933714878845,0.008231924081808182,0.04187960550796373,0.2008747805948955,0.016712002225036642,0.422168612029213,-0.3260456090772352
49,0.8568432935198067,0.3596706691664725,2.688158369649042,-2.378879778047255,9.364166460139664,9.541166510714397,0.19179469045272587,-0.14034324143452206,-0.09601802039838676,-0.04064072354170332,-0.0012732267465700362,-0.14450481481867136
50,0.8944852459440283,0.33561066044438276,2.7045374408763356,-2.4219056230717975,9.446266894328256,9.537228800152894,0.07178286039357976,-0.014682184312220754,0.39104821519372257,-0.21977922274406997,0.004989014512482682,0.1542006152273494
51,0.8943041495848916,0.3639466418525131,2.7085799751353976,-2.356858842692102,9.47024883368724,9.47403248347376,-0.05322606203085716,-0.07834381308675943,-0.10032571370290934,0.0213045081298339,0.2973784280833621,-0.08667881619017907
52,0.8758771298623801,0.3018666010561397,2.7709853860792975,-2.3658741722472243,9.432637252767213,9.489053114789806,0.007794730098195935,0.3571008950490792,-0.2796123008491278,0.029531633842349605,0.11509932247156286,0.5028769464283286
53,0.928265036070143,0.3594921220584083,2.7377458704996656,-2.3699888310624613,9.432863376527278,9.517191613633306,-0.2357468868927847,-0.20034957348236976,0.14165080913346376,0.20652317052682662,0.4197823833071231,-0.028597214589532013
54,0.8998341887633151,0.2836529867078266,2.75255683732178,-2.3344574633876523,9.413553215201176,9.588956210197471,0.07215586222479396,-0.013962480349541413,-0.1455489752703203,0.08731727883192596,-0.5430242421247293,0.20892550998300854
55,0.9141610357766776,0.3260010466075317,2.7431969118326793,-2.3415444537371046,9.40882611508265,9.507564468196989,0.06957345365367841,0.2908388449166701,0.02279030196309225,-0.03950868071299306,0.1798537951423424,0.02879019179478554
56,0.9375351927895418,0.34468754096342685,2.6813020992859435,-2.376165891921083,9.42737300010665,9.464945026687987,0.4368029069127917,0.16331982977162313,0.14673105900458805,0.014142751182752438,-0.05621580573234485,-0.446461369672106
57,0.8848425423029355,0.3738345293230374,2.676588036468141,-2.388977742274223,9.436153094049757,9.522094956906871,0.07210054004397022,-0.3881301654842371,0.33261974275580103,-0.10483506751411256,-0.1159533899382314,-0.3785131017773382
58,0.8709478282007971,0.3449298187235636,2.668842274200171,-2.37538226402551,9.378429392161516,9.493553156387849,-0.41503542480913297,0.16697428606468365,0.09846643682028987,0.020228044704114385,-0.42264400949038794,-0.08963097032063191
59,0.9565581405411695,0.3496202938537284,2.685515925692016,-2.380425983572525,9.442050066739876,9.484039755540556,0.3741658172566656,-0.1403756981205085,-0.09954225583839547,-0.22431752662865015,0.12000338491671436,-0.14166192929356683
60,0.8615524203991172,0.34486705740695295,2.7248850951049692,-2.351914152395535,9.39826703519465,9.478912119043233,0.06938977502738967,0.044867956078506716,-0.09760297617089153,-0.16188412731802232,0.11804399403339517,-0.02584809257773988
61,0.8709587167917426,0.3691737276423324,2.7474554642243545,-2.3554327166831563,9.432223118155841,9.5264359691439,0.07305982176159835,0.29148969221213034,0.45648575487906967,0.14518473854570693,-0.23421918667759828,0.08545038007776029
62,0.8902462616240279,0.28769009605142143,2.747894056577314,-2.393690879646151,9.413353401021745,9.518199867822116,0.13200285714072565,0.2300804536827622,0.20826625407231064,-0.16067436937459278,0.0027736486329532585,0.0908357804146865
63,0.8478095440488753,0.34022766808070726,2.749981176151574,-2.3751105295940476,9.345814553877597,9.503133951734078,0.07198982726974361,0.4136047958296786,-0.02630007000553868,0.2660556560488199,-0.4212943691155529,0.022602956175925226
64,0.8665673603323206,0.2971561893182829,2.7718352907266155,-2.450845146649393,9.403812733700917,9.523687119200115,0.07001497090010908,-0.015864299810293428,-0.21453523735530464,-0.1606032194428892,-0.1237504716023685,0.034275392256277654
65,0.9186787120934308,0.3982229281472577,2.6914879274076275,-2.3590924107529783,9.403340574079524,9.569147045514978,0.013112845042621835,0.10372898884476119,0.2219553306860421,-0.04372004421354767,-0.6582591918621779,-0.2663499674501928
66,0.8944549185617384,0.32586190979069507,2.769151926681687,-2.365665588613391,9.495068713103974,9.498365397458384,-0.29387962392833394,0.16695745877847704,0.09408625092623789,-0.0409979372323851,-0.2416912573695832,-0.08869824178258498
67,0.8613442029828401,0.35947509345710194,2.7103517904742382,-2.360575465480619,9.412404816792716,9.512288803018789,-0.17129420841450851,0.04615558678898544,0.15648175233205147,0.0850335447149028,-0.36018582322871373,0.08931676085354046
68,0.8800044236286694,0.3212225204644494,2.7365157395142914,-2.3888619658119032,9.484820091566688,9.52258723014923,0.19456700139666308,0.41419015974113393,-0.024757286275976335,0.20584802053200874,-0.54051334344655,0.08299671993275494
69,0.9092854418418506,0.3311571099857399,2.692070531848996,-2.4018929249318153,9.384080899421566,9.570380125586594,0.13136937858200673,-0.1973774260880862,-0.0336732178281239,0.027935541488606712,-0.06076747965195531,0.27155587057179414
70,0.8847991887796003,0.3593053138553436,2.7180495487127385,-2.4463405929112985,9.470258504522244,9.518269925616295,0.010282208285524215,0.04660403313963844,0.08982534538420069,-0.34248049583670837,-0.11978027889619702,0.15537347000704252
71,0.83319044451019,0.3117248150772043,2.7584055509198513,-2.426494377873397,9.3840186094253,9.542287976833181,0.0706343455467373,0.22677897892730856,-0.3314220750366317,-0.7779117580949385,-0.36561555968579823,-0.1970802533360174
72,0.8946099626387846,0.27785329438481615,2.718803445301117,-2.3898120768095574,9.441693957138522,9.484845826232556,0.2549296985570743,0.168225486443889,-0.027469171125508385,0.022225596459250936,-0.4201047342578474,0.029263099984701516
73,0.8850215011119725,0.3119296212170372,2.7280057186725086,-2.3264132950960605,9.451268472381864,9.536104670738867,-0.04964594840103974,0.04367268860197385,0.15450988400293106,-0.04147081805270673,-0.2993588392283969,-0.1467158034977657
74,0.8801876575379058,0.33576779519798766,2.6770129887918004,-2.374055167267012,9.421740834516607,9.54132287678017,0.37465093782032555,0.22579311185249282,-0.3964587284605507,-0.10652131417243413,-0.24454009256411138,-0.3263845670891617
75,0.8711408819259292,0.3498859226392483,2.715682821733578,-2.3700983854458473,9.38869251995131,9.512513096242547,-0.04930595335050685,0.22888320047007604,0.335722878507393,-0.04024014961188182,-0.23676274529793145,-0.029944566531209558
76,0.8903709783187842,0.3591457340195095,2.7621600610020955,-2.3805776384876634,9.408780463832015,9.47918222969803,0.1913200143696657,-0.07769092921097985,-0.15803348532284728,0.14475654022664355,0.05796165217663214,-0.02910859104448272
77,0.8845518929401874,0.3641251889605773,2.634057323399746,-2.365749789676896,9.440307061210614,9.498007380554851,-0.051379099380538557,0.16694365023786303,-0.03246486603537167,-0.040982765553372144,-0.06194830584144085,-0.088669906171337
78,0.8329822270939128,0.3261275385762149,2.7438722462891203,-2.355337990486713,9.398156391023367,9.526838738160375,-0.11457735016467058,-0.13676220146785786,-0.04149853911444001,-0.34067750098412464,0.4178723795280315,0.21704491297994127
79,0.8427089658440514,0.35958358748901686,2.758223896787407,-2.398098323158727,9.388931017470757,9.536668067093501,-0.1742254097569824,0.22888695995605413,0.02435096246922024,0.02099110424653126,0.17828356504179707,-0.030898530435888284
80,0.8805341521775094,0.34017561294132626,2.715100217292209,-2.3800131193588623,9.407952194609269,9.49843332461637,-0.0505821700299996,0.41297336334083107,-0.08862710006804508,0.20382264277689452,-0.30286847235257436,-0.035925502980202535
81,0.9710525233850986,0.36915669904102605,2.6628255464989565,-2.346019351101314,9.408418948381902,9.521533158529381,0.2544601827940227,0.1662533934842109,0.20988171977886425,-0.22564574055053488,-0.11651528933105759,-0.14530448414607383
82,0.8893987626552995,0.36401572559320045,2.708203026841208,-2.36136961850913,9.484531107379102,9.483635921205984,0.129980841020467,0.2299850646371934,-0.21957269446558406,-0.4055317083288695,0.11672129625949212,0.0946923885170745
83,0.9475238566827131,0.3313833284800322,2.7612037863104044,-2.3585532449440576,9.43347248990058,9.584077639946095,0.25387079302635124,0.046106421534149074,-0.0917929911046753,0.023822702718060997,-0.24085391962821298,0.09022134711024189
84,0.900141070592258,0.3253627707513443,2.735050199255785,-2.471432889051115,9.365449679806915,9.471239946735132,0.011748041423136986,0.23010763911416723,0.15646480630268592,-0.09944834857614646,-0.4190373976848756,0.08990582404968607
85,0.8236865524799485,0.31213687243909943,2.7401450162654775,-2.3399456225471447,9.364479621414759,9.56491498393554,0.010562387260925385,-0.32434950003049834,0.2710202521943237,-0.10106816967508543,-0.0572044336753792,-0.14139385286904413
86,0.8660272775800599,0.34481938602072487,2.7007725688086572,-2.404144779368086,9.417112575241237,9.489189501764827,0.008794427454426525,0.04616989582053404,-0.15564606178383952,0.08502403230959726,-0.0032603302329650146,0.08929781047504956
87,0.8757670424712437,0.32590861184146125,2.738277192867698,-2.3465776481511815,9.422583609991857,9.498095819462637,0.25642259272627815,0.10750698243839929,0.45765560727272964,0.08474660351910597,-0.3531212967025459,0.08856907977692485
88,0.8751564851385076,0.30663151301560676,2.690100144304544,-2.389614018308662,9.460144704243746,9.494113356788192,0.07180156323759768,-0.017027045586384567,0.3910558757920366,-0.0401988265066961,0.004973373444914096,-0.08652451127529633
89,0.8659134494762493,0.30209088087950825,2.765119754408059,-2.388819865280151,9.475479238425294,9.522766238600996,0.13058580055800212,-0.26312848804177275,-0.3365100920474922,-0.46866415186663907,-0.12508834413951117,-0.1364679708656715
90,0.8282818512554483,0.3594634179444104,2.841218927320806,-2.3653474505961714,9.456946859653799,9.512356197517725,0.12790769872206909,-0.2599745192309431,-0.10861031429385284,-0.15748549190395109,0.6587033911730896,0.1562257263796909
91,0.8515073768415653,0.3161389552446196,2.6632919467643514,-2.4134949941523,9.411576547569972,9.494360825056992,0.06825868852745824,0.04501978185749368,-0.3418841349844531,0.26664605539521985,0.17454167543246044,-0.03250869904738753
92,0.8754899536370659,0.36379582952298484,2.705034399244199,-2.3857519626839405,9.431659656033174,9.464900807234095,-0.05321846338718206,-0.1996693571172499,-0.15993636611825685,0.3299626809455381,0.23645858769572034,0.028998610538123654
93,0.8752936935867841,0.32088439352055104,2.7413841764059366,-2.3142080644034744,9.48004250478002,9.459524637149872,-0.29613755554263893,0.2914354712842015,-0.15489182822158504,-0.16095077750859324,0.054901510523030085,0.09017196298480747
94,0.9194416415655885,0.38793027507437683,2.7586417651694988,-2.361422244173821,9.36127637097605,9.483412160641274,0.8011915304756192,0.10746894359007492,-0.09998868287170062,0.02354913744862508,0.002637020145854183,0.08955895038056931
95,0.914216881053533,0.36409551551111746,2.7387534272646934,-2.3942510957209477,9.39919144233617,9.503179769165117,0.19091913424120383,0.04242082065224347,-0.33921037029036555,-0.10469979882157048,-0.004677733946445953,-0.2646918835036075
96,0.8613436685953151,0.3069545500291225,2.7242168445900954,-2.3885691811145646,9.42217914621549,9.532257529721342,0.1308992895363709,0.04557270910461792,-0.0956596936515827,0.14522592900802606,-0.0016093184425471632,0.028845018355338047
97,0.9472201811789198,0.33047065633201905,2.6955200996812554,-2.404113203969272,9.422930048758206,9.489323758103652,0.3140601712354818,-0.07587470185686185,-0.15526476243469178,0.08656891146924134,-0.121344398310776,0.1502233775759679
98,0.880156795768091,0.29215629135821775,2.7554925287130083,-2.3757889061602393,9.4803169827151,9.474973343163633,0.25355246362530953,-0.01578757122496377,0.026270956386186345,-0.03818484703995841,-0.05907199391420962,0.03242084964338132
99,0.8707781548201308,0.3260287813860677,2.737632944367559,-2.3793285207137367,9.446430728092055,9.522407689038413,0.3719421379675597,0.10196564795750762,-0.40819875328497873,0.014420008468430364,0.35572380621730343,-0.44576082812536316
100,0.8900933550970814,0.34964170620818774,2.7427823214944542,-2.437167386362104,9.427630839296103,9.503920575994373,0.19061578989470712,-0.07285583208993655,0.07811339017918059,0.030427974382107002,0.42157132774592,0.4485322410278321
101,0.8568254578910371,0.3404125376128482,2.7897908831310043,-2.365044140765894,9.437439016641388,9.522071249202778,0.25242141897539017,0.10431999026936258,-0.3373061842607756,-0.22639998466734032,-0.12432524441318776,-0.20407367050501118
102,0.9185805820682899,0.34523485780031105,2.709662815988496,-2.3980667477599122,9.427531998452947,9.536802323432326,0.49661390422004686,0.10682038171303257,-0.1576219954870599,-0.03868311679310341,-0.06017924988618603,0.030971941875563302
103,0.8810476482601547,0.35018122487422787,2.7537220462045173,-2.331269481275118,9.375033865885257,9.53581404833427,0.7437410399963074,-0.07714613355054266,-0.024774902645632348,0.02334013779133379,-0.7171607640303811,0.03224819746654751
104,0.8855913768589982,0.33550216641246783,2.7483190089009732,-2.3843827653936898,9.398941141488597,9.512849536078182,0.5564732057256417,-0.015102397882452897,-0.22233363816068982,0.2689517066261711,0.11939512145541532,0.08718777404793275
105,0.8796589977641156,0.38271389546178713,2.670698402782168,-2.391219071577556,9.47906007262848,9.440949085198044,0.6177978712390081,0.10441106456011762,-0.22151475614801167,-0.04274635858263553,0.05973043603997951,-0.20686305473625174
106,0.8572174436040756,0.3263688470008898,2.7309563829233867,-2.387697049101482,9.35044764857047,9.565454672586082,0.6790788617717414,0.1651077852517198,-0.15997219609934316,0.017202284000704025,0.0009425176347294068,-0.268088111920714
107,0.9041707687209314,0.3067993539464413,2.7048903871557903,-2.370134263898666,9.432049613557039,9.508147843642377,0.437304184858272,-0.07851759160149202,-0.15021098573418126,-0.46846097952471616,-0.42070457810287215,-0.0791758693948825
108,0.8714738160369626,0.31132101881030966,2.7444821307890903,-2.4278004243660187,9.36998180116351,9.494607760666744,0.37307486606368206,-0.08203192871422456,-0.22348864329049012,-0.046003117627946545,0.23826959239086135,-0.44264045041474687
109,0.9191629495688358,0.3351431335254156,2.766994133893572,-2.432886244444786,9.399675405285686,9.484915351367686,0.4363407820350029,0.10501399649816513,-0.034519764331953924,-0.04173791192004671,-0.11881486526361638,-0.1474515904953488
110,0.8805742993756951,0.32646225110242216,2.756829029742756,-2.3495211681770636,9.43249276067342,9.564915516594587,0.06794064097468118,-0.14401089014436733,-0.6423846792188278,-0.046726706929106195,-0.009793290209931534,-0.501364203628119
111,0.89562179111293,0.33558292566584674,2.8283543460284086,-2.3841215560951654,9.400258209078359,9.522385579311468,0.06827072480363766,0.16632841065909812,-0.10235247357557117,-0.04199929505785878,0.35822029664264776,-0.14817704256883837
112,0.8862013998042095,0.3215689085033481,2.8103611115799843,-2.3782731583867016,9.371154376659481,9.560596614084506,0.31305331345099086,0.22648740427325653,-0.03960847098320033,0.13936784273853103,0.18052887531723427,-0.27070852515076155
113,0.8944695478653585,0.34057405611960606,2.7507097378948684,-2.3645217221688455,9.480442133138887,9.541143335669354,0.0674391702326967,-0.19998501446930217,-0.28584440430442104,-0.4658753679089805,0.4156072884419308,0.0412508546885985
114,0.8421114346523605,0.3257675363537008,2.7331998217850066,-2.436984156048151,9.441188520025877,9.508912358175724,0.5533608503469376,-0.5677981552511978,-0.3556003028619277,-0.03573899584593185,0.7178545887931755,0.03899988902786156
115,0.8804365565398935,0.26364808526609995,2.7194100517572206,-2.4129874037421937,9.422369289559917,9.509157163149283,1.0404740375430939,-0.3230407258864419,-0.18103865771622113,0.023365707181281618,0.9636250856701203,-0.0243822873792069
116,0.8813090390156626,0.3496893775944158,2.8331371368465486,-2.3849367593895527,9.400133058654573,9.493643193272781,0.799846486168335,-0.01470579199437251,-0.10589406072671967,-0.34222593605399176,0.30278793627798223,0.15612554098119424
117,0.8568135005250417,0.34980613272133126,2.738907801338536,-2.3372169082340295,9.403193949492609,9.492969248283412,0.7368661506528991,0.17123463794592558,-0.23402945653603052,-0.03390123395646679,0.6607214790643394,0.3276415565972013
118,0.8525019040744661,0.3256400750495557,2.860610306857748,-2.4563333058088848,9.433639026588759,9.499645892938183,0.9156709491718807,-0.258149314352322,-0.671337324090527,-0.21567732757567043,1.1960613203013288,0.3355376728173856
119,0.8566898526053353,0.3451667433950856,2.69691168868204,-2.3604132854325424,9.388218227836795,9.517191080974257,0.915283923233775,0.044847182412591974,-0.8524111713392891,-0.16187304924329005,1.1333062556441245,-0.02586152405811498
120,0.9049196032769941,0.31154091488052527,2.7766213595886224,-2.4034180801912086,9.394837660995877,9.513342874638637,0.9129177563392875,0.22762725918181373,-0.9822290209087787,-0.1647172170019509,1.551801598522714,-0.14704051846117602
121,0.8619970450638615,0.34990198190509275,2.7447974350245095,-2.412654437538032,9.360286970913887,9.527423711582907,0.7922213428808783,-0.018962656806321997,-0.7967144195445849,-0.22686710184729086,1.4335460642479512,-0.26209398496078695
122,0.8862154947203046,0.35514706563168036,2.8057839769090234,-2.387498990600587,9.36630212611717,9.57472220314172,0.729731406509733,0.29135730906963614,-0.922619036183239,-0.16090124292278976,1.6715658938155553,0.09014015078937042
123,0.8430413655675599,0.3351197825000325,2.8008882599587768,-2.4424302146758907,9.379994628105731,9.485050140365558,0.42521066406278496,0.044228204506712436,-0.8002500272624957,-0.224112869991695,1.7313917584228342,-0.08441553848154218
124,0.913926231690785,0.3644015239233268,2.696222714196298,-2.383792892945008,9.403345409497026,9.53642113148375,0.2447020311086906,0.04666312417727859,-0.5500032375591178,-0.15881999494108773,1.4335967092284232,0.15255841656647615
125,1.0332620920429914,0.378346457345138,2.7089531175318866,-2.385130514836444,9.433874250752568,9.488606658978489,0.24464068918234846,0.04524001013776292,-0.4307775238169742,-0.773044211774271,1.5554706528278492,0.04308479727307984
126,1.080714818326397,0.30206120743004844,2.726086085347559,-2.4173211713242027,9.487410137557442,9.527938627211261,0.5532583503211433,0.04310638694599079,-0.8348877010755841,0.07995381247911755,0.350905403884601,-0.20811415158408864
127,0.9526954438555376,0.3838401412559391,2.7162103382039096,-2.3402341041904786,9.35632044417308,9.55947568062477,0.3712716509385892,0.28773270802721596,-0.35088882838183993,-0.04453605503646538,0.5366621178020241,-0.26854630930965967
128,0.8957068949970256,0.35035344955821546,2.787026483886786,-2.3591177640728587,9.361370376401704,9.564826545027753,0.3756568475220476,0.22453140943207198,0.26629660424718,-0.16975489979315297,0.06520833170196857,-0.44437650709850707
129,0.899931784400931,0.37344776165744914,2.7482470028567687,-2.399697154348687,9.399136120250528,9.479317551354951,0.494635914556412,0.10987597156012427,-0.46509366758575377,-0.09484201552191038,0.11553735096047937,0.3293183744655429
130,0.9238183687213904,0.37877992706149244,2.752704127454056,-2.3553231622997703,9.40431333539606,9.53111448653466,0.0120894526699057,-0.20049474174222978,0.45687943057855757,-0.16078082497974114,-0.2345780781513906,-0.02291253554554164
131,0.8856868349465145,0.30732964218201914,2.7994693908993913,-2.382621754155653,9.423621364229039,9.5751023297722,-0.17681973220322036,-0.08021264942011294,-0.10661381741965172,0.01827233807483027,0.6567828852673274,-0.2651768137239136
132,0.909602677874214,0.3212969572937516,2.7670421379230414,-2.4075580923263264,9.399545419444399,9.537160872994908,-0.23782082299421556,-0.017100213074682392,-0.04657612431500547,-0.1626183452916177,0.7172769410144153,-0.08464203991291082
133,0.8902608909276479,0.35032377610875565,2.729451867790496,-2.3876190701169104,9.398726821056659,9.569998933638017,-0.051598533015302046,-0.08276029457949273,0.14633131264664131,-0.23063962702438345,0.12078107693550556,-0.49925769281060384
134,0.9713149829156564,0.32071899767194567,2.7145105289092735,-2.4473012290418907,9.41396948230567,9.480483769586678,-0.5385689870890079,0.045612531111065,0.15181765468586722,0.20643994831932141,-0.0022838758121842707,0.027905147948662112
135,0.8092057301645896,0.3590873564560518,2.7721233149034332,-2.404437564065425,9.40303281865319,9.479519202192714,-0.05215629324042052,-0.1409681251107717,0.1439609344648162,-0.1641073365252767,0.24080780590425577,-0.2020796395336106
136,0.9186087719004801,0.359285840171808,2.700508546646575,-2.3233138171010355,9.41782749736832,9.47837349571079,-0.2335800143607793,-0.08205539250035916,0.15103400225089728,-0.1072138359342329,-0.06042963879581653,-0.44162042712993654
137,0.8946376180834499,0.31672420662596407,2.723514230075053,-2.321651835113446,9.441763785476669,9.53599252412699,-0.11168046066391266,0.22648417396597192,0.15022936760982175,0.07813667025451246,-0.05965412239607964,-0.26974123244618475
138,0.8714586523458177,0.35010581870946383,2.776789373691766,-2.345716041271037,9.394382710551369,9.531248210214436,0.13183015252631464,-0.13480596303741116,0.38710499035630785,0.029686005981558423,0.18545354864546215,0.38981419573172565
139,0.8429302094013738,0.2875105796078953,2.795910174978892,-2.4179426191716993,9.38948964417592,9.50423277546687,0.0712043164647271,0.16270555900749256,-0.029847006913612653,0.013120282882580526,-0.2411853506976435,-0.5060017269341994
140,0.89413714814185,0.3355712501531552,2.7080453747234987,-2.388893541210718,9.489378522503912,9.522452973810404,-0.05004668511723156,0.16982166299064358,0.03294183278540962,-0.5256743554011586,-0.30109458706456405,0.21621859422364464
141,0.914023292940876,0.3641762747644964,2.705777933847144,-2.3939898864224234,9.39870264396915,9.512715812398405,0.13299478058420772,0.041258599292854636,0.3322132589552657,0.07693430712559757,-0.1155479257312587,-0.3864751501844708
142,0.8707521025380404,0.3928567055406017,2.691326997246051,-2.3846396716382094,9.41703791148559,9.507544489106236,0.37418056937783556,0.3496956592815446,-0.15916249769056454,-0.04379986451253266,0.05905577509343202,-0.20979851294812238
143,0.9143551582768595,0.36448957493624423,2.762307351134371,-2.3314316613231947,9.399540584026898,9.5309117703788,0.19504873347793789,0.16876349854646297,0.27684020152903466,-0.03793699986930121,-0.41610892094298685,0.08975162689553529
144,0.8474457481680271,0.335155778373569,2.7996614070172696,-2.394971572818892,9.423101420863887,9.474840152142903,0.25154189175233765,-0.26604192954142786,-0.2812004070348642,-0.10641359652595027,0.11662984480292556,-0.4394665499882074
145,0.9000987858439726,0.2923688956688947,2.7487816032686676,-2.403506584308718,9.380006431433856,9.50875386147376,-0.2964781882822409,0.16689558708032082,0.14321245707910427,-0.22466347467382203,0.3593494445783219,-0.08590391124153622
146,0.8759058540820952,0.3503048088365255,2.7479660626215185,-2.4444910775557522,9.413158422259812,9.585111732475191,-0.11271031466027419,-0.07967045821727532,0.026301376454135383,-0.10312933678195285,0.058643414289189205,-0.2038058685030401
147,0.9329752317245034,0.3496777020817243,2.746742487723878,-2.3897087445051053,9.447415292736718,9.493710587771718,0.2544203624723661,0.04365453778561801,0.26943541938613214,-0.1026825960647792,-0.05557574263675292,-0.14575232716714662
148,0.8803660819594179,0.3493089323529043,2.742295725112025,-2.37669883565107,9.446630542271487,9.44582818810847,-0.2960307397467454,0.041168435954370954,-0.333743537828578,-0.2904055213376099,-0.1277855506755184,-0.3807920241141251
149,0.8471534956427043,0.28797372277370953,2.7987258562964463,-2.359633960590974,9.456578376293065,9.541568214412777,0.008621178069526357,-0.13981417096299736,-0.27612758557265915,-0.34575297503712066,-0.06495693215201984,-0.08035388909649492
150,0.8280491847196554,0.3303081684897993,2.7387845132209954,-2.4377783090766623,9.412368836377082,9.48025947636292,-0.05337128432958427,-0.6347736152709863,-0.6988652020008408,-0.4731259826291301,-0.19154550536915324,-0.4889000507331911
151,0.8142097815068475,0.3451998312622364,2.7404603205008966,-2.4123827031065694,9.354784791165136,9.537004506929136,-0.17749756285067214,-0.14348400781773923,-0.34854634502700627,-0.29058653753006825,0.5931732549158972,-0.4381109885456644
152,0.8614824802061666,0.3835818042299578,2.733905714343916,-2.298461679993867,9.412753958483444,9.515956935584544,-0.24044989899710545,-0.02396324595102233,-0.47675023435692426,-0.5410624578769474,0.9512250648207836,-0.7330870105544338
153,0.9505975716140967,0.5141107702612149,2.617049588915132,-2.090677196330679,9.531873498964387,9.616747140647,0.1282629419577529,-1.2950006487860442,-0.3469386549573417,-0.8743032292470483,0.41508297871610494,0.9533278297747002
154,0.6796384997066619,-0.14308412544603957,3.040709440678798,-2.422159156270605,9.089413709998075,9.49402379528063,-0.06325556741374194,-3.6204590862427275,-1.1584575968916524,-1.0399172957978184,1.5429958238910146,1.4591849595206874
155,0.8550908471429195,0.3079311123264676,2.6548149570923885,-2.765426094891908,9.545479533869177,9.194104597628185,-1.2855094225475452,2.591313616884923,-0.8686875313812581,-0.8340529614363441,2.6801236959932995,-2.901916111202487
156,0.896069622102824,0.3123235211449047,2.765076361252805,-1.8315024130153832,9.30363216826096,10.001376718506922,-0.06509017790337095,-3.348619524425244,-1.1676500253431286,-1.587452655882817,2.023194248311027,-1.8670102590152295
157,0.9102680117087559,0.30351891082997606,2.838505810149924,-2.712140105592321,9.371898311291574,9.222016139952682,-1.776439875687633,-1.1322629547875398,-1.3578019804099946,-1.1555919512002462,2.97029438938641,-1.1268955276640331
158,1.0218289323769256,0.34131450358363163,2.550471271653062,-2.2911134803458904,9.541435640448343,9.606884720818314,-0.7989894060501482,-1.1975140284770192,-1.594191327076219,-1.3449632517753514,2.312631728224129,-1.4801064064452345
159,0.863203530425714,0.44546188556380756,2.8595937209376356,-2.2238140006643716,9.299791362375197,9.45708058673359,-0.9178157149708405,-1.926775481954238,-1.4591482102556308,-1.5142560075075673,1.6533882504285868,-0.8141477155154759
160,0.9419645588970497,0.4030929197209486,2.7541113016976584,-2.339884390774445,9.519421268316817,9.573600737022934,-1.16208094440004,-1.7950163540266693,-1.5206648521933988,-1.5607972590922974,1.7710850369847,0.07732590304826929
161,0.8854113492749113,0.23680952097602184,2.7246314349283205,-2.1607322828087168,9.403374422002036,9.653729831998175,-0.916891269657507,-2.636731643707957,-1.3959427065532395,-2.20213765983062,1.5341765663667528,1.763121077312179
162,0.7863591641504659,-0.01722064827553751,2.868062821691516,-2.7786345272509845,9.346715354362866,9.211653989654964,-1.592736910606765,-1.9354316491684116,-1.8336086905401492,-2.5081602651534785,2.364194497815033,-1.6321102599104034
163,0.655572308503424,-0.12532779476362038,2.7984830859590653,-2.705968657657402,9.49702045930482,9.416764694783188,-2.6403581107295784,-0.32740104604711184,-2.4161072338281087,-2.9617315692017847,4.5105760194184,-6.285201504064417
164,0.723664289242118,0.08419247859233604,2.7741591524043563,-2.676292983929368,9.344473879631584,9.295123299905102,-1.6635172921787156,0.20084461324275785,-2.7730387382382955,-2.636291200803426,3.7911817431096346,-8.616703411967018
165,0.876877535358055,0.12689472470178395,2.815788150898263,-2.8005899277794337,9.347182108135499,9.291704766244338,-2.5897751528444695,2.8717846241710436,-3.9560683355318194,-2.877334233377377,5.5096505304125705,-11.322353302936461
166,0.7102923566509955,0.3779674878503938,2.925243571420449,-2.5236486878367237,9.336948563281975,9.48579307783101,-2.4138218833234606,2.9135471790592313,-4.285820146522805,-2.4201269133261163,6.766880846538997,-13.233556510662185
167,0.7844455945933112,0.28167636715811567,2.6816692134485325,-2.6675119711893656,9.439640493258548,9.455333803741441,-3.4535897631138566,3.5232032634034454,-5.133538084503818,-2.490149780363459,6.9281671120423685,-13.596876449825002
168,0.4972042420683822,0.5791863546894065,2.7279451303214057,-2.451988548089792,9.517740378872228,9.50197465806998,-2.3606589963071216,4.1268489303737645,-6.175215414351605,-1.835516124075203,6.980170180913649,-14.565875400336635
169,0.6045746559542746,0.25921059407330155,2.8731510826134747,-2.4355307576943956,9.363445140533214,9.557219103923346,-3.167239333210967,4.3187488472479645,-6.889144735872015,-2.1905830043820327,9.546665588628956,-13.78949809503611
170,0.9276252201301668,0.14843013112871367,2.726453199510148,-2.456727503785747,9.499677630709341,9.472693591417165,-3.1120388105734174,4.732857364246267,-7.274059138310188,-2.2178534559501504,10.562338981056856,-15.281509473193793
171,0.8378176738305544,-0.0988591290350836,2.7532698138222567,-2.5462651085642616,9.398361040620303,9.671857477551264,-3.4212785163230057,4.536525459912068,-7.889338656034793,-2.4822203840114754,11.03182274154734,-16.46526407841897
172,0.8322708677984111,0.17630882887094998,2.7831953568861216,-2.6440735159332758,9.508780556762543,9.432141269648255,-4.095065528218892,4.982828426820104,-7.900263329862542,-2.88422423602175,11.80795369316562,-14.798288780498341
173,0.9039067060277987,0.37711513193676205,2.6948005670930453,-2.4790633482634923,9.45582206790159,9.370686614042192,-4.5227409074729685,5.543838995468819,-8.619887858908154,-3.177492265803841,11.434656056244878,-13.907832431727575
174,0.8509906744337705,0.4917444202751127,2.7078604425471875,-2.4466956835407143,9.50314085283062,9.340532672139169,-4.58792117458954,7.012473773830169,-9.056723489276669,-3.801164202422488,12.028393391869114,-14.213202612737497
175,0.7514422944679244,0.2949961324960494,2.7249025410319705,-2.547781887009471,9.415901886836512,9.296102577081015,-4.469969617745479,11.603034930921652,-9.373142577434342,-4.265138322141204,12.624948701547854,-15.153719676125688
176,0.8571714181431158,0.44508633048675444,2.8417431657472707,-2.4428028973827303,9.43342470615682,9.479252820151256,-4.959767447830951,13.886584855979397,-9.977968264851595,-4.86286282416832,12.613321078674877,-13.743893028130206
177,0.26631877034025997,0.3643280564294864,2.8677807993570683,-2.331954079920243,9.779818618393078,9.511839683912227,-4.527076886260421,16.47915638730182,-11.092501573031829,-6.131423485058473,10.378437844245074,-12.089564451364073
178,-0.25616778684244007,0.38031578513531034,3.3863608217986716,-2.10417602935802,9.186985854728194,9.637274469772754,-4.378892148345993,18.638122512302207,-13.752303288544349,-7.221478521781329,15.744827050322689,-10.849175897395192
179,-0.048621782490462284,0.4290288521316783,3.2885827168849286,-2.054079941195897,9.446769603836838,9.726745414370198,-6.5424073361181065,20.420030949340646,-12.914443203513827,-9.732126572023668,23.36831306181563,-10.415312408467576
180,0.18904303291374594,-0.857866883118472,3.279923737820034,-2.1645398001603144,9.043169056241519,10.308042708716364,-9.685960357767135,22.521163718672067,-13.584123222958823,-16.996300647187375,30.66363114514416,-8.544704397540627
181,0.1601310407704457,-0.4874819951749314,2.9358215714271245,-2.1645673017989497,9.387003100534232,9.984959806593904,-15.996426826078384,27.487462679717225,-21.945156842304883,-21.833446546473155,31.164146424881455,-14.478873164089602
182,0.5789674421155759,-0.08815263942664331,2.528924295272675,-1.9590096991135582,9.879581205434768,10.197743806630008,-23.288300607453866,24.790976951761213,-29.610187627574035,-25.610919833674973,33.71000680865204,-14.030956849002303
183,0.8466289897713247,-0.05339066877890379,1.5108451027670244,-2.35862477255587,10.84914838859664,9.902526776790735,-19.26412947585716,24.90529139447904,-36.57233732524793,-28.745828980786577,27.751937663308055,-14.697931259898715
184,1.003792935767047,0.3763832924817829,1.8115597600960007,-2.215036216818997,10.013576733153608,9.772441295126201,-15.901908042506959,24.35710009649739,-41.3307502365161,-29.89935479395889,21.220936841973508,-14.256680290760688
185,0.8075266501666637,0.39984102122122184,2.0765730299215654,-2.2544401652514656,9.670283362046325,9.729844496003192,-15.118892964443999,23.55118413373958,-45.3818945117547,-30.093697861165438,19.787000390072837,-15.076940809634003
186,0.6201246414969926,0.4077673355852689,2.7044684357533164,-2.3023720582292753,9.662623547581429,9.549176720835279,-16.409623347789232,22.935061599515386,-48.710427217787704,-29.667583613056912,19.371231736650046,-15.373563517763031
187,0.535524020080666,0.44171961553103595,2.8528059014521925,-2.3387931499945904,9.596664442634,9.616154914669194,-17.22226548321666,22.372704477976107,-50.94641725750457,-29.49869221967476,22.035924131752665,-16.38086101072488
188,0.5012942614145576,0.5715699260794161,2.9383356730678956,-2.261027706294675,9.74579131894347,9.675852576653146,-16.023128233473972,21.137085910234624,-52.71488295636525,-28.835035710603947,25.020394265405844,-17.26861294185825
189,0.7406768070269472,0.584945160974422,2.9383384232579286,-2.2168657560680445,9.70599916513815,9.546307791675574,-15.24969896885904,20.945930990109435,-53.04030489955436,-28.540321276250076,28.983471548776382,-17.984757479229803
190,0.8344614125035271,0.7731560869004813,2.8026151567186677,-2.055621378663016,9.824904385187157,9.69491513253853,-14.101249280467561,20.276904534300694,-52.909752653258295,-27.854732003345614,31.274207005884914,-17.451695572998773
191,1.1022687263195234,0.6091219248234271,2.584408263019687,-2.126120059887979,9.662659701908655,9.54957155724771,-13.077022191299584,20.14609783293168,-53.92393225640989,-27.072627556547946,33.06740128094033,-18.295242070091785
192,1.4619684325355276,0.7484645876704374,2.415392530736622,-1.9965368534291748,9.411482145624655,9.584598267434254,-12.835483265867978,19.911243917123834,-54.771696178789746,-26.686960918934027,32.816661457564976,-17.286807461609182
193,2.116112838364681,0.7905314659300837,2.3219310934983053,-2.1512941730622246,9.442971548348943,9.5148317981341,-12.955899805616097,19.051730963857317,-55.12387660532579,-25.766929482641853,32.210778205273556,-17.40968598017292
194,1.9680884806628127,1.0060173338689615,2.1475411875317985,-2.113069504522974,9.299613047038575,9.531350883526803,-14.230780435042742,18.9384004002334,-55.93144962290816,-25.077699964421328,30.389632580141335,-16.526354330938684
195,2.418400500165578,1.0144024076456697,2.174693999108864,-2.055364701712321,9.770310783347364,9.3730405374655,-14.280177081586915,18.14304621350757,-56.481723284096034,-23.296868783270664,27.43990480321573,-16.42522961084191
196,2.3911961113994717,1.358917379415523,2.147208521898713,-2.013044040594634,9.578135139289756,9.373979856459906,-12.25823760540142,17.41833677656854,-55.310411396455756,-22.23455065956024,25.9684312836142,-15.361731359566612
197,2.499649161887063,1.3398587009131167,2.0093003751060827,-1.8849419698385421,9.099088256306453,9.34373108374052,-12.247205632489983,16.443549362519942,-53.645572948743094,-19.527516404530527,24.791302561845498,-14.856307140903297
198,2.590013557792656,1.3831812249419837,1.979644077461685,-1.9030797993030972,9.133381107198991,9.38174206565294,-10.279790086806722,14.982152607452042,-52.02850371918479,-17.300941597818632,22.305313320313534,-13.921182211721659
199,2.388233999867569,1.5611607833650056,2.12677807985062,-1.620877270210124,8.793059456921592,9.414254134969976,-11.428065467591662,13.840315666070124,-49.58490076019835,-14.809529467460147,22.092639321873314,-11.744359846410394
200,2.253302014825468,1.550999006013961,2.193300504165138,-1.6843286775883115,8.964454279565796,9.362771529898957,-11.471414269203198,12.324422717399726,-46.87716233491059,-12.449148670206098,20.449979094146702,-10.15621957512943
201,1.9510540529894616,1.6921135257579984,2.551829135428376,-1.714712299113682,9.338835267865699,9.657630214847051,-9.822267807627629,9.219593811548913,-45.07845436035755,-10.68368735907075,21.206899421637623,-7.944853594178107
202,1.9623683742235456,1.5095387914901186,2.5435293816079882,-1.494469601705987,9.128329191709152,9.494050518722922,-8.96903041454405,7.5245239094345395,-43.34794804337577,-8.926704352454154,22.61794744975356,-5.869285858244758
203,2.339598903794749,1.4626544832074682,2.452529262048088,-1.5339164955357603,9.117789627402752,9.619073152375506,-8.230878707051902,5.02710897012712,-41.28929634784817,-6.990523903826924,22.83237049905513,-4.26289458543271
204,2.6755784927458097,1.4918554653773834,2.293456059695492,-1.4755403831034015,8.852079496579316,9.66090810026041,-7.669357779329839,2.1627801027205087,-38.423934112342245,-5.540455722296635,22.276518579003756,-2.5254959617089257
205,2.980553875714043,1.5162754763219874,2.1086002748779014,-1.350868372517421,8.839168471700344,9.682772190806563,-8.693103981328212,-0.7616173046103553,-35.61268986623928,-4.026885164795712,21.88996189472654,-0.6693402615285169
206,2.8742402469882062,1.640288160002897,1.9898885487209543,-1.4422015571170934,8.888599563238387,9.668585066499945,-9.095572554251932,-3.927023567911135,-32.634739855269316,-2.321448671585549,18.98787549519809,1.6032292796186376
207,3.097617714503496,1.6105379223251735,1.8459667596776292,-1.5449621867313066,8.942166024610133,9.574908431322394,-9.31734126613113,-6.546058740402514,-30.026181873759164,-1.1786020545589546,16.261954933351525,3.3423665844922135
208,3.1538329796864297,1.5194524750682554,1.615518532092841,-1.6306579412854239,8.915612240067881,9.576971822449147,-8.313781113828002,-8.184419162059102,-27.09807113913011,0.020150080639982488,12.347422958965032,5.009313896200843
209,2.992665080829033,1.3798281241698804,1.8055678921690963,-1.7280126937787212,8.887501081066805,9.498561156220251,-8.2275176147987,-10.00972649302883,-23.818353634252333,1.3370417622881192,9.392873814093074,6.3791840862319
210,2.4721200556632446,1.2605117751190562,2.1009540494438887,-1.835807362672563,9.028288704144837,9.563214313535708,-8.273678644453854,-11.776778212992602,-22.199115366361312,2.8323051485175843,7.4343443868169405,7.44809408435715
211,2.2217257955455145,1.23082236008702,2.202664847935107,-2.0283214769374354,9.30867803409462,9.504194325154462,-7.482710267561167,-13.115822365938953,-21.313559467813914,4.017572541626947,8.532803535082085,8.39773405731917
212,2.2941415309412267,1.1790091762559154,2.463435762994984,-1.930937533074399,9.409211758923792,9.570091011051097,-5.83545389593677,-13.467364401427577,-19.821015340950794,5.57599001720469,9.405469170429395,9.924774971811978
213,2.27001203956777,1.1823569239394034,2.4642825821917826,-2.09181928790138,8.877763451722835,9.44830171537033,-4.436301110929887,-14.81501351484665,-17.684851793019654,6.563413558249894,11.666239329135477,10.044680335752215
214,2.4665592684012227,1.158546484736989,2.3356733292126513,-2.0819614827070603,8.725435457467778,9.457926730170456,-4.371355781179691,-15.430366576555059,-14.616506535373214,7.663986577361939,13.331604640860212,9.797078977590266
215,2.6339980251802317,1.1926738973731295,2.46930761549347,-2.046802797739091,8.80625398676323,9.523894006520317,-3.211370137179111,-16.095589087759397,-12.042915925579836,8.478015103701976,15.057155551378203,10.684956228222548
216,2.2656055194172033,1.1791113478637536,2.5209696515967193,-1.987417726565454,8.87375397665577,9.599507874738201,-2.967557066116692,-17.00970172420102,-9.651601016663143,9.531900057360323,17.07409299605196,11.21511240281709
217,2.2693469065736758,1.0831228211659938,2.7487331823062293,-2.0403520834240774,9.154690874325444,9.57730414840212,-3.093455323674734,-17.79564148300387,-7.754911933621359,10.410653432706104,19.622371611403427,12.281826108554581
218,2.3400565546005385,1.0802182800406275,2.495594575528382,-1.9111763639655546,9.094505971425223,9.761549486591813,-2.846974991197043,-18.21346629653873,-6.667954734075642,10.309383566534882,19.93954224062193,13.41881345501754
219,2.4962121854623565,0.8416531899328987,2.1892697492511934,-1.9845203808315037,9.068199784806167,9.855457814938118,-3.322889449606122,-19.07291640689386,-5.418429778894798,9.63865908318776,18.393201253639393,13.379749380342735
220,2.839205274101655,0.7905352272618207,2.0219958865876686,-1.9795722323464842,9.094347394278273,10.032366887996297,-2.7096820774928725,-20.238866366141103,-4.568862256790659,7.990878744377461,18.28927567408616,13.419076118534901
221,2.945635937256452,0.887137709454923,1.9931701024500703,-1.8394360969152972,8.927903663019535,10.101037729517952,-2.633346221238773,-22.24465025761624,-3.245881205578102,5.888530555160443,15.907044653260236,15.320052622983697
222,2.980979281448305,0.9328606293952366,1.7017443621358528,-1.8261389311448852,9.06285432167868,10.415256992701025,-2.7964014663092036,-25.295928884308438,-1.7844167816094978,2.929687840045969,12.74463137399816,17.00865342375244
223,2.927755299250284,0.7672521248014497,1.7600409838877045,-1.6886897239316259,9.177825300847525,10.018943540892574,-1.2589925000350948,-25.81124379218185,-0.9572618910627528,0.42250988944124324,10.364688826337463,20.682812702537582
224,2.998395541471721,0.9919632839938193,1.5020579422329468,-1.8551590470299526,9.122352991813324,10.05734317198025,-0.0802638255388328,-27.053485624991506,0.6206629816773244,-3.0444484784638894,7.032349185675578,25.33250123427987
225,3.094735135608006,1.0406729800596453,1.5224257925786144,-2.1175324881583024,9.052195830516265,10.241854564223752,2.503379953772527,-30.72802611945642,1.7252869327723375,-6.0377056260958515,2.5616215364644117,32.02671790923775
226,2.838447688504747,1.45257583766907,1.8161915076672246,-2.0645091621780227,9.038668303154017,10.28971278080554,3.43293975628118,-33.32980023357704,4.059549208610045,-10.08674286625098,1.0399195079052281,41.699568789623896
227,2.6501441586129277,1.89222009443233,1.797248277492161,-3.6268322283347207,9.241568249013694,9.577767197999105,5.57925918058252,-35.329334602313004,4.640836489471137,-15.075085722031503,-1.3997962996558324,50.30845522944632
228,2.489561299193701,2.3872315345778246,1.9753036848942052,-2.845110629983362,9.136728849731492,9.046911762333199,6.683228901106368,-23.17487214554757,5.861121394270274,-16.130326770454126,-1.9757230500499072,63.20932685863866
229,2.485886846745477,6.630710703528405,2.1776241319822214,-3.2170485598972616,9.149231319759444,14.936960402037853,8.582209300809737,-31.61437320947892,7.865350394909798,-12.493617072325332,-2.475181189712905,65.93311566324219
230,2.640949600488392,13.753749831981644,2.2621517626836285,-0.8473103283581039,8.96598370900597,35.3678006734872,9.690746355665985,-70.81947179509542,9.464478591428856,12.443288502371486,-3.766054926425818,17.23221267602515
231,2.6498757146449505,17.20546121573235,2.6682914208813338,3.3741274775588415,8.766339955889762,36.70694752343461,9.149042328333763,-182.70697594239005,12.48962270861958,21.67306030632969,-2.825431087315674,46.16074684432818
232,2.5125553216848773,14.167200102496421,2.7933389848726144,-8.738500241497892,8.699316787124522,20.94025692580327,7.876123261029075,-195.9744310158291,15.698504122952047,41.604146299846605,-1.7069441373406264,48.50935249185712
233,2.5041142939179126,12.677464066821127,3.004971353420262,-2.9085220720248506,8.716676343112292,13.211030554313881,5.866417937358742,-188.6975435247983,18.34972636541889,56.392265475046344,0.17955909327237807,63.01141693638275
234,2.469657212591261,9.977934093267656,2.849416169777581,3.4354270256580453,8.723481901917314,7.079175282800781,3.007063248721532,-163.16220808050076,21.50001933678298,52.879415474850994,1.707276939453421,64.54604581596524
235,2.7449795648121436,9.263238257908558,2.6107473628875115,7.1704248146080225,8.785931563061567,5.702323662425445,0.698521124472566,-139.02713747790085,24.23769013844465,45.054166363604956,2.3921807184170567,49.74236933825925
236,2.7896571276535718,10.394412725694501,2.4063728273950553,6.488889399327388,9.008422545661789,3.9077031013210415,-0.3891365904753266,-107.90677627434017,26.975649077413433,39.65766092966039,2.6645341948636494,28.213367220963505
237,2.982070335543772,11.108050053847954,1.9224829959959524,4.692399644931706,9.090048364592365,2.85779990263231,-0.43550551088179645,-65.2623668493886,29.191637920703055,37.3620918732986,1.3148161505229465,11.792515982128235
238,2.7195520640308684,11.904388405822557,1.7340772751440992,3.8212264241556775,9.466479046361508,2.8292159472610274,-0.2960579282674272,-19.95941760890033,30.939766426907656,34.54071146837439,-1.0610601388532073,-2.5101775624149028
239,2.4494304439038332,12.978200998117396,1.6906516543201011,3.850434394261764,9.71574919292119,3.1001677768493754,0.5109872158209469,14.082993082488473,31.475920954744403,28.505644566176876,-3.870250090729545,-14.128943673668566
240,2.160463231671632,14.16539576846745,1.7360250516419706,3.759036853855404,9.994780639448075,4.378276850531871,1.1237435291465487,31.546715299897997,29.989636316472044,21.7575942520391,-5.808935797344457,-21.373349608150455
241,1.8680101447756934,15.08650284681239,1.7855656041707917,2.983987416907966,10.125492004725105,6.6464230064055885,3.3744887270325905,33.57084492442388,27.743442518775584,15.960897679248058,-6.7274089478577315,-26.901029857714615
242,1.879736625742132,15.610199433816714,1.9172528925387244,2.09352498157561,9.964905000754609,8.333187461171024,5.1389594269836865,25.387119373045138,25.567013834402147,12.77346576720485,-7.948059584467336,-29.133901080790224
243,1.9623745595014113,15.429638530779101,1.9767155281498288,1.5094515614523327,9.8472872653591,8.085524856422458,7.264572784549976,14.036988513796246,24.026541816539776,11.592635809321248,-7.5962503131616135,-29.336755837390772
244,1.7474598969349775,14.852357539919398,2.0662313286938727,1.2985452263571413,9.883948699988236,6.619913128168394,7.318128754286867,5.3834672506384775,21.66118789893483,11.25146700080761,-7.929991519698061,-29.88221854544967
245,1.7000587408282277,14.108089668059742,2.155575309237073,1.2739840857720632,9.898972775819066,5.148471316792113,7.002103398446149,3.0466036317251977,18.742914686213368,11.248830806468689,-7.853623658060203,-30.56823698366121
246,1.8534980399892114,13.439490066603337,2.1101050988797487,1.1341349582455273,9.81427066622319,4.178820144940592,7.724281891652749,8.551865198248604,16.78484811341913,13.034350627914986,-7.45671059947997,-32.20899309083542
247,2.0502806072960813,12.940661948631583,2.0146049894211413,1.0028596484211028,9.657649048130986,4.056557432508446,8.153637570581038,17.235811618306407,15.897269329467624,14.177792142365858,-8.847604802676166,-34.830021850710274
248,2.193242195600764,12.464211899645768,1.938512372596128,0.8394345579137142,9.658481582339974,4.330468056296391,8.33878760275643,27.193963572810812,15.068501256898296,15.109765928633657,-10.059055848226345,-38.77209148918589
249,2.14122843947727,12.259506698204886,2.0145499014501045,0.3316960018598218,9.644536647010717,4.6019121919534625,8.586071533631713,36.904153738010656,14.005436705630704,14.14211278362977,-11.75380262635613,-42.86027598190145
250,1.955631735997053,11.941408770912531,2.184539631474544,-0.08951154151282224,9.663645432095517,5.583966828328878,8.277157681118144,43.166412660383784,12.37417991197495,10.781854553850025,-12.199372794682134,-48.06035509276908
251,1.7281394664689944,11.922062906224223,2.3999490947594864,-0.6225737827621851,9.582366869650306,6.860549036407235,7.54020489447623,45.4538039633561,11.039068434340445,4.828126378259264,-12.103100880752008,-51.923216547682806
252,1.6091636612849616,11.739108551004371,2.4345938393692035,-1.068528591774022,9.542971467367883,7.994331672346503,7.226085190591213,43.32196783845565,9.445316445251555,-0.8063374014079153,-11.34742897510273,-56.095017066181846
253,1.6771981935842253,11.471371110317763,2.4563085527300523,-1.558679159872798,9.429382548709444,8.728833039900262,6.18162154718895,38.85248207506457,8.279473216691272,-8.094783367096507,-10.470139079085483,-60.86767246368666
254,2.0039597303800694,10.994451132817904,2.446291015834194,-2.0124117145333056,9.227948427519566,9.035462857823216,6.790656062428109,33.34797300753849,8.872949893694082,-15.489144922690773,-9.917292697742086,-64.9123464843634
255,2.271608259406345,10.516912309658242,2.375487982326784,-2.3261192273095355,9.18749880616593,9.225638321978614,6.9154388529246384,28.20890106337116,10.02135251673672,-21.66584248739564,-9.599777271466353,-69.27759375503096
256,2.1623857796420665,9.959141116923737,2.456925270440438,-2.494137375672528,9.158496517514585,9.500377126185507,6.673231121034902,22.284171738520303,11.405792869805026,-26.04547677746211,-8.8010137502165,-72.59025263190975
257,2.11956081706655,9.358329088211729,2.4207915114113137,-2.6762461485364724,9.109528732481945,9.78048890452233,6.738696405460945,17.828706349611434,12.860839785044812,-29.395917692884698,-8.599731318840673,-76.23393622434125
258,2.316704508316643,8.723359467002817,2.3449364416662974,-2.742116129163333,8.924491894517313,9.944796566376876,6.2579843239622965,13.561009868135042,15.047757601657919,-30.966798920586402,-8.331359242476026,-79.60980533640566
259,2.42621656866862,8.077973608758725,2.3337599748527533,-2.6970943469304025,8.968888874853347,9.974071659216797,6.089772642048654,11.627085510831927,17.624257102981336,-32.35922160391326,-9.436282717363358,-82.71887706956814
260,2.1867185917898455,7.593728700064967,2.439699572609693,-2.699818843332253,9.096370680111038,9.840318995741246,5.306091647159549,11.52803602270602,19.28106405727439,-34.25754257991315,-9.957971868033239,-86.31797245958423
261,1.7493725114032987,6.994546671959837,2.4805716472025066,-2.8508057749278777,9.392447206576488,9.165928212536194,4.50683710179001,16.140465134117985,19.194891438667895,-38.7039504531262,-8.403366452207862,-90.94568279645695
262,1.6390259782236387,6.289259566109901,2.4752100578406986,-2.952334433559342,9.433924340901045,8.372580095911468,4.193594470606251,25.593551755614605,18.681308970609358,-45.68773430357468,-6.9117473812444015,-95.94931419649829
263,1.6919300524516716,5.820058217863681,2.4112671005940878,-2.906778712163292,9.352360488823232,7.737130025750379,4.129246234117111,40.058969117130246,18.786964026416214,-54.739999812314835,-6.070119576139486,-102.52787329935678
264,2.022649209633139,5.523882190272761,2.4355705873006106,-2.871808025567426,9.271110542363363,7.772809046576716,4.863695870353856,56.44634143235199,19.872935251917923,-64.5607428813495,-5.869606073153504,-107.03533795500452
265,2.2665271199928654,5.2552519705586835,2.2405030271330832,-2.924563605733682,9.128019724989045,8.267409666513814,5.787363006352054,72.42080871077641,22.181839217645937,-73.92358044572964,-6.070898052364856,-109.93866324355518
266,2.4397940467383954,5.022091428003265,2.2665341310466776,-2.999363935411448,9.011148056718751,9.005270491102767,7.636670905336968,84.85711537095263,26.03012947697688,-80.97525005266702,-7.565049899518253,-111.0503772466447
267,2.501588783726308,4.880814231883937,2.2419999304705733,-3.317283282653274,9.035555934017234,9.936506404156294,9.546962197171123,95.04365287883397,29.339131901156392,-86.14889567623837,-9.486857678871543,-110.31977464995803
268,1.9565905048181842,4.67885325330106,2.4294253482244708,-3.6302334311442035,9.16484769630636,11.044740894493879,9.864748719777733,99.61727349697438,31.427196258478187,-90.63697454823763,-10.655924703821753,-106.67670329859749
269,1.3957900213539882,4.437019163569337,2.6261100725343143,-3.96250891523951,9.47110358640221,11.967582742182703,9.125534179954212,99.47942265998482,31.037748008376756,-93.74037913613384,-9.165278490307907,-101.98702968135458
270,1.247730526782106,4.0940380386794155,2.6411201394158743,-4.173756874770309,9.464515868672516,12.770411586854856,8.750276172260467,94.51689674325759,29.742490320813218,-94.64754497747214,-8.105542963091542,-95.36949585012488
271,1.3582852773780432,3.753391249976751,2.6610150334084133,-4.288782198392459,9.40890095274989,13.252255552122328,7.8258381924554135,87.28817393778678,27.909524800645393,-94.37764201127703,-7.357066093475481,-88.50482961756992
272,1.6491582632153858,3.1440176550610057,2.440015127576264,-4.492570648735951,9.342629678157975,13.0891208612221,7.704052575890252,78.47144681588188,28.50900423474501,-92.25533808328305,-6.868946938090556,-81.11427844850425
273,2.083015148926828,2.682449141604666,2.2862839308516105,-4.428339156793383,9.37500406034092,12.787252763115255,9.178167744792203,71.50451110625701,29.924720954624913,-88.2893275924341,-8.220075112697558,-72.8816888310878
274,2.1553298815193274,2.240121731100645,2.2786407327303135,-4.368529936550333,9.299320542207598,12.499577115905513,11.695850880477728,65.33800910686853,32.563473461802,-82.36373725717824,-10.267695291620884,-64.45094616546481
275,2.055528861838819,1.60632175932907,2.3503411470606768,-4.323007480284201,9.279873427129587,12.199589671860318,13.35493938401138,62.35793966387665,35.184263850060304,-75.84507854461698,-11.120261914802335,-56.36520323493839
276,1.8984074279638152,0.9999295439630729,2.4363282897866902,-4.395340933820509,9.264638304222455,11.781750642695863,14.890312115038046,60.82529859420672,37.02025911152277,-69.61827852526362,-12.225025356359993,-50.672145238472964
277,1.702778707067092,0.5571891067616946,2.567877845031266,-4.455223155414053,9.31175300998581,11.48145579310961,15.081841120173637,60.770193415223815,38.731572696154394,-64.48964858705726,-12.739703737585508,-44.38481525754261
278,1.5695693754071134,0.16258913002349354,2.718493113591931,-4.518937776258435,9.340862248253448,11.218924989826025,15.636160147989969,61.74139737434049,40.248803461958275,-60.432619307645204,-12.774478155088678,-39.64013348553819
279,1.7454100815299511,-0.16847713935751368,2.571036110642841,-4.568935300174257,9.360231996651432,11.113022333425567,16.67808619663697,61.29037750602791,41.82272860928441,-57.79561128480463,-12.745315742581449,-35.927398944056876
280,1.7580581630720518,-0.5042922614321435,2.4222567745471384,-4.637749030120825,9.453910741014214,11.016970050367084,18.519109294085986,61.43797786017642,43.42077574924972,-56.89872129459162,-14.211796603798058,-33.56341470902167
281,1.1684381665993555,-0.6045986161894006,2.8096132432255057,-4.5660788302451,9.351076847956632,11.012130905638164,17.666557197371233,58.88532595619222,42.9513934068615,-58.68454571753707,-14.824469373276319,-31.184942064607522
282,0.7664068198711635,-0.8411348721107779,2.7822955029958165,-4.733557197227447,9.383457850227014,10.806822221003838,15.332583583585173,56.38826438068263,40.853905896253536,-61.52057440331884,-12.528003748408414,-29.326519106410768
283,1.029523577664591,-1.1732777772287852,2.7677785885844193,-4.71602368853711,9.353346020418815,10.552099977003369,13.679337459269712,54.42997034315978,40.05322157449471,-65.60473842659974,-11.469133037748255,-28.704709997503937
284,1.3452792782178686,-1.2916906120390976,2.7069590050953813,-4.542854735415531,9.2849914517229,10.068975458974421,13.680331102148259,53.03021269811403,40.476457292866115,-70.29235743416703,-11.342874872185073,-27.42555854632138
285,1.5836896081667735,-1.441724877548574,2.653004721124527,-4.510360389236091,9.32094994146467,9.85049462411851,14.975796765097515,52.91987698748477,42.74898931038263,-75.59470607131652,-12.923095651556755,-25.97404778227758
286,0.9278545666545934,-1.759444109737268,2.7118613362711668,-4.691453365708097,10.021026643884307,9.665220995367575,13.84511020003803,52.79884321054712,40.836830520184236,-81.83260552937902,-20.522853157435534,-25.5196095110108
287,-0.8151413051825093,-2.0236970384828186,0.1932403072374255,-4.850962085194969,8.022157305857403,9.574545947711409,-12.754138456398765,53.96295405708411,12.09425823548504,-88.87600453411254,-25.24967583763765,-25.30612290656165
288,1.5457339520708435,-2.2302193666118764,1.1382552601118625,-4.971637597457108,9.901004763056326,9.51140284840831,-5.424080506468035,54.7594179099281,7.182789138229398,-96.59015955614328,-19.026316085791237,-25.018331849031075
289,1.5581321680132814,-2.248798336271318,3.0713649047078375,-5.0076817034615795,8.690368246608184,9.588409358717874,2.8132075595671147,53.04439974100692,4.967210317713616,-103.85958617867736,-23.507663051934795,-24.409667009187373
290,1.513538412908466,-2.3188703607547354,2.861708482222513,-5.044725087939943,9.284788116900074,9.799480142034753,-2.1906187768782543,49.930828096980626,5.566385403340885,-109.75674816308737,-21.429530976214217,-22.675052516977587
291,1.039108939040898,-2.460619395023223,2.071554109383113,-4.972507961012842,9.97961286456278,9.985832025486996,1.6478328006520035,44.492289811349906,5.533923402458406,-113.79906026066976,-20.98579482157305,-20.465209820330603
292,0.5626914679737361,-2.8104397667540453,2.755372241516653,-5.130129367666419,9.705653544090818,9.95794679688015,2.7326919449672094,38.146963942104925,6.01504432302595,-115.6745408061524,-17.969887274522456,-17.08817529887313
293,0.987950477838145,-3.0748897469557335,2.5493027847264584,-5.124577677847893,9.588804912045516,9.793392617511541,3.5188944186807807,32.71783481337922,5.026977815243031,-114.5624342665257,-17.438573589433968,-14.244042644816524
294,1.2225241633835087,-3.3380947875654305,2.5723488603890057,-4.954035796466082,9.568426595826956,9.7266754791286,3.2839845845006677,27.120798606052887,4.468600794044396,-111.09785555853682,-19.90957582928264,-9.94676773185185
295,1.197182194699209,-3.6861292687786036,2.410698386913172,-4.594584950199599,9.623116534176802,9.75349592565295,3.594033313791377,19.562121561874875,3.7115790651792158,-104.99227270036621,-21.719745121893514,-5.6667382892609135
296,1.1955810516866936,-4.279541437507443,2.42406187178695,-4.286627126734447,9.819475157900277,9.625927961577457,5.85681700221906,13.105187074417254,3.909793423339983,-96.99893812267396,-23.263461747379626,-1.72668963028897
297,1.1382194215189625,-4.720686669736084,2.4243498959637675,-4.0383596032981375,9.81869524285255,9.421448318008768,7.1456664910351835,7.143075311119354,4.479051662379416,-87.53237497900042,-24.808191265537374,2.5417806827021137
298,1.1327088211318834,-5.210563473309167,2.237145357947851,-3.6840187057033456,9.77279531656857,9.077593495211278,9.108266058554781,2.340426939615207,4.580046357074686,-77.53014067510361,-27.49620341976253,6.193155473616725
299,1.2627550588761838,-5.610236352577117,2.3829325818509397,-3.4077968032743624,9.762367537295964,8.676750434851163,11.679678186542843,-1.3136797718808157,4.315661839135797,-68.17252847390841,-30.365369246110546,8.234364359611835
300,0.8600699149781368,-6.032473255708723,2.54911590733663,-3.103483000826537,9.44829003092911,8.428370854293671,13.087014773960208,-3.623144081804458,3.854172489773886,-57.910616406973375,-32.104405780229506,9.769470327227127
301,1.0157330726908145,-6.234892848658339,2.9452566148024797,-2.814491728437572,9.413193584956433,8.159062773571096,13.445762098278072,-5.020911057958807,3.7626968230456384,-48.33923178360964,-30.662112840871774,10.531010401871807
302,1.1020345703073724,-6.43294449708,2.7237856133013847,-2.7114877960388233,9.229279653538647,7.897106347810757,12.905064641564868,-5.377690338047124,4.4584684475550445,-38.16325000168203,-31.85658250327487,11.092183964641169
303,1.0482949544766063,-6.519076285503462,2.7989206226043577,-2.678286261784857,9.416266279122596,7.883136059501219,12.109170185112028,-4.508251733111398,4.805996913894692,-28.60471930897314,-30.715831077913204,11.64816396054954
304,1.1957563834692726,-6.585111200643285,2.772751534836255,-2.7745630625217195,9.484885828830182,8.023450500442744,11.804535257124988,-3.533681223925021,5.166850175160338,-19.932097113485135,-30.412317767520413,10.55059313738271
305,0.9135943663548015,-6.606293549693192,2.639693296909071,-2.8366866788434377,9.402507469439279,8.367982734889852,12.169077627894197,-2.9299037772869654,5.8180652338246475,-11.935252114087229,-29.62043358353636,9.22990082474693
306,0.8192513081096665,-6.652640277980727,2.819851409128193,-2.836521040606909,9.379948976855093,8.544914450334023,11.613688436213712,-2.621563784881813,5.4929745053943515,-5.325916578474804,-28.367714713230903,9.06463600298979
307,1.1586800316918773,-6.521918137835179,2.8876061867642844,-2.926367712290488,9.42865269913051,8.759615006012298,12.101717221577227,-3.6737119199320514,5.611362772317209,-0.7480300864453864,-28.362652092495885,7.935696944506044
308,0.7851051638512955,-6.357502054769846,3.1058650829837817,-3.010863051542771,9.101385995394615,8.997775010484267,9.842288981891292,-5.2123624223113705,6.026729671022408,1.8198995173481716,-27.110450420064133,7.319596616342991
309,0.8820562704091506,-6.154722459597717,2.9464632716269525,-3.218208158370297,9.39224409436173,9.285009471191492,8.606702615202115,-8.8275485116476,5.302827306976163,3.2490361979680964,-23.886438316093663,7.638391973105025
310,0.5932740089349776,-5.842083334724013,3.0909553579126947,-3.5351591869653185,9.160748282208608,9.587068771626535,7.071391440784818,-12.25526083252763,5.681951460384393,4.316183726801475,-21.009010039614488,8.317540139690303
311,0.8077440468366671,-5.542654555308014,2.9815272174491105,-3.583280217899449,9.162066911860235,9.942704495859669,4.809223989174025,-17.940570042937942,5.365708855919553,5.473735406430653,-19.646970443688758,10.15286493719126
312,0.6856338719566711,-5.349738064321406,3.2895551310648017,-3.5027782986439617,9.121874138065445,10.106716855941542,1.6389561045138945,-24.790116189003395,6.098983584059683,7.433153527149195,-18.81600686816385,12.049297857858525
313,1.1111499974763885,-5.263551312752178,3.2738211978434975,-3.4316491836020875,9.108319334171643,10.09536435719125,-1.5363826595725616,-31.196388991787163,5.553598454120343,10.453608618557032,-17.883170993307296,15.23291980463098
314,0.9557612566602639,-5.158376905092153,2.980248554580433,-3.550396736519962,9.18321138121687,10.124672802879815,-6.342651125561332,-37.342043738503804,5.798717868476227,15.333901306179268,-19.531659875509156,19.812559075877036
315,1.3453082032780312,-5.197115972276002,3.0398539539789318,-3.6465358656630764,9.514792935665284,10.097770580062221,-8.041278708650667,-41.77550834563131,7.097860025758878,21.176982053783806,-20.123933435229464,23.82125533521856
316,0.7204046684638734,-5.343842522814635,3.0471413711014064,-3.522861214526059,9.35802377473172,10.245281703205952,-15.2895502536888,-45.347251744855726,7.520974531863511,28.9181341049289,-20.764908391455094,28.028254134414635
317,0.4925702855710549,-5.600839691081274,2.3433306424340223,-3.3429867104374575,9.789534599662328,10.345333174793662,-16.437999194726967,-48.12896604675275,9.181822975059513,36.64357613500415,-21.349330274453607,31.512016975651736
318,0.7191241876697322,-5.8426085453783445,2.4822902088629633,-3.06561440504843,9.670271311430445,10.520190845930113,-20.758308302978236,-50.53924036098749,11.332507279795939,43.88375040115955,-21.105771771446065,35.35581042936959
319,1.0596055274864435,-6.090445165866175,1.9172471150359764,-2.740310900979564,10.269500905137738,10.52747117310867,-22.528359935596143,-53.20164713918453,12.764516630017285,50.6240541751759,-19.11520612751388,38.55594534465117
320,1.7095134010723596,-6.249998549117356,2.3678129514104747,-2.688707564072037,10.0601347979526,10.308810264482895,-22.824744525239222,-54.09348039507696,14.179534563777013,56.97606959911933,-19.87678481219238,40.96742136825163
321,1.6478948638016282,-6.481677501800346,2.357392434462839,-2.481952329693192,9.432308618288692,9.998004208370102,-27.74679194968459,-52.97215190273267,16.66866415056448,62.07754888159799,-21.19372139832321,42.362636660355314
322,2.0304374634528983,-6.540289668855773,3.271100445342538,-2.2916600336292996,10.063484105026554,9.795521151369957,-33.53449953223582,-50.20331854060457,20.00177541142043,66.17919593145655,-18.78027808004065,42.980160082362666
323,2.2748716850805097,-6.651180101579043,5.005538464477793,-2.12857782530378,12.882029777957383,9.64161495077223,-33.57414052874498,-47.063693302649426,27.261194629606443,69.61087847048874,-16.933246835574266,43.9009914580091
324,8.741828517613486,-6.765252842650048,5.305999256929508,-2.064460950521414,16.061167207975195,9.708565175629666,-30.88930613449377,-43.68459103930211,55.622370949048026,72.42024350412625,-6.658817769551634,44.2929905692776
325,2.6046174481344964,0.35945972920840263,1.9366299572707641,4.50851977265647,15.214634994715583,34.75019122881065,-6.825060486160863,116.79412094215247,66.28699901986718,170.64596200947264,-9.300950601627154,-35.06432613056846
326,2.0964747246797395,-1.2606482501906926,1.8019517204818962,39.739107012484524,14.722421602765047,-3.177751605399271,-2.428787987097182,-292.2129148605578,78.38142248331441,136.03578528148563,-1.055076932443606,11.9259065599853
327,2.402248242123961,-19.129417293306677,2.5764576717179555,-28.34268011562917,15.28829086397405,4.718920521751867,3.8818851135795844,-123.71862237176377,90.92702738900648,131.31556084346528,2.107454420748515,-47.53402395389613
328,2.879003646121485,13.836114447277778,4.048906967329989,15.3968592502854,14.799740364051496,31.670018912133568,12.26457583326489,-111.22640558908732,101.78964654947279,123.85930794330807,3.5781819611447285,48.60810293906728
329,2.8247261797543612,18.58494369168218,5.123645841117963,-34.21165521874244,14.633014445083791,-27.336501961249553,12.839209735754102,-234.58446875251582,109.61770573506107,122.43139199736007,4.174747578861137,147.03253097185853
330,3.0884345223428893,14.671095185986546,4.205060725843551,1.1799069575424335,13.90054746359885,-6.952821771662118,12.139541763808136,-30.49558538891529,119.33290035189887,160.12609423533047,5.149080608551028,16.029934542498236
331,3.238579465536508,4.057344331220774,5.333801251714003,-5.302483681733372,14.464726661583356,5.8984413281471495,8.454315291062667,-27.268280986751677,129.36495221064953,195.13435030557693,6.350826020630638,101.82548541890883
332,3.683922036179505,6.235473820584102,5.217082138961396,-9.871141194277776,14.856675971222296,-1.6136519802827949,8.371676989503541,44.17386951624639,141.9161663830944,224.98730505498582,8.211253987908272,20.78540782744373
333,3.984730179023711,1.1707553373338553,5.380881460599594,-2.1979483128459827,15.016321855929483,15.503344410798862,5.994796184290667,44.57212113505656,153.26055514399627,218.74592372798037,4.095802868102259,78.40350602290418
334,4.072721016175812,-2.698293472925241,4.821312185354018,-3.355932413907032,14.95664050493654,12.517349138947669,4.544198459613858,-9.012548866179936,165.78848123961254,205.37982675408182,-1.73867356747328,128.9887967401801
335,4.040668795094189,-6.2731914558269,3.977198582409061,-10.265285777167554,15.316984856406657,8.722421605670721,5.898504100567097,31.591264302313736,177.34576385779295,191.2104335457479,-8.589949661372716,87.42624765379372
336,4.247835639033727,-5.331405236428898,3.6054936789223593,-4.370111882470774,15.429176067439665,13.124026731828453,8.108848032577047,36.310388757550214,189.92832604931718,177.19954400204912,-15.300659350530093,46.17806218021701
337,4.434172399497173,-5.744952069211051,3.328642583116597,-7.033552196440378,16.365494627281294,13.108220532435496,11.95997922525483,39.18313203747052,202.5363350037709,160.69281505046033,-20.73935180576558,16.17315732562922
338,4.735838615374389,-4.98637658670405,3.054615250139819,-3.3552373748032953,16.67660123053728,15.167222632252209,20.852886028272145,41.502418193752646,215.1275331549253,137.94744182252919,-36.29314694513636,4.360341343449661
339,4.917290303145764,-3.486841206131701,3.2209442821962835,-1.1512611364465724,16.260457149793115,15.913929632977144,28.72143198539942,14.195004039363669,228.67678367211988,118.15937775699926,-53.88118254780098,4.280956542274121
340,5.3789652085745665,-1.9726267794494976,3.7853788853483077,-1.5198629865791635,16.897135063567486,14.068368671357783,34.82812257732974,-7.6268524394685935,241.00018400641633,103.14156933335612,-73.5385633267303,12.391476823002664
341,4.94463528850533,-0.36734010025698377,4.498347939986465,-1.2678447175258758,16.753374877260875,12.055784026882566,39.762634264423724,-18.36891688044955,255.78591403188275,90.42613596859431,-88.12548919343799,18.19202200105673
342,5.4811558186343134,0.1581440861482624,3.8276398251434016,-2.2359396344826186,16.717326497847786,10.56187476167111,40.15516488787426,-14.535294849738507,271.297142088409,80.3036811840128,-94.74592370088642,21.634489876243308
343,4.773050019029547,0.43277592423832506,3.9724150476090636,-1.010800857848479,16.882039423425052,11.562854002187942,38.281839827826374,-12.929460835366147,286.41660975115826,70.52726673465405,-99.28509287429158,23.253810565547802
344,3.4363360109547547,0.5791255599632467,3.6212000895655083,-1.2458595036394653,17.528482859723088,10.83494737967947,29.88740451054584,-20.615965872037744,303.1057129812803,62.348485462932985,-88.65365121933159,33.7057662337072
345,3.575682725289171,0.915604060173584,2.675499923890529,-1.655612107243842,18.459083281466416,10.017084463898822,24.395033095676933,-23.32171546313269,320.57126304362015,59.145848908364286,-71.9879916430631,39.14262478766872
346,4.0803226935402535,0.8827984690409663,2.68803111910266,-1.6580901373913706,19.274825503184886,10.098521490671295,27.253024859112152,-31.69534885598038,337.1762984925279,59.107856446617916,-70.05057109421375,42.0399261871094
347,3.979261041049414,0.3509027485531725,3.7339103726067004,-2.7076734998995553,18.96827061272285,9.736694494531605,28.925934535603293,-35.486226558605345,353.1393999978286,59.99957629725287,-62.90641658484499,43.141926927389186
348,1.738192745357413,0.20015918477589742,5.5426717950373146,-2.86684218623778,19.543280936910605,9.492301309933302,30.124286333824795,-34.67042991658452,366.76579710880907,61.08694202347214,-60.5423273807192,38.89105220047219
349,2.5804284350014557,-0.12035074141763279,4.09077546207438,-2.9704676516267647,23.457059586614214,9.520622488560225,43.63545816295948,-34.90580572900645,377.0742991412952,62.409576910566216,-60.30786318821177,33.81602924002662
350,1.9126165165329192,-0.17795729514767122,3.24693035771018,-2.9094809853726864,24.923613209080017,9.477371190879555,68.42377549686583,-34.722921958039464,381.5318147183782,63.71217305362283,-66.15060798964274,27.66564073417404
351,3.480977784948556,0.07590957642346598,4.390065930091025,-2.7904779802310755,26.253846616309946,9.48285050965351,101.80496877532278,-35.67166945018317,382.88511309323326,63.79113268398659,-74.68222693529299,24.879719592142855
352,3.636342751250892,0.4024225253330722,4.826607943529631,-2.384660721904086,24.606809080432544,9.507454984880352,128.20530420821964,-37.23428520501072,390.5772035509652,64.05544186060507,-84.7911252196574,22.03895131501366
353,2.915820627103386,-0.9760055124026007,4.569152357350547,-1.6510446900734626,23.148104644273946,15.449002833997898,134.2438768145446,-19.546312914040467,394.0614345312726,37.898859785445765,-97.01221184796107,43.70595305362893
354,1.1249378908386163,-6.74049367663759,6.18766021552054,-9.935693100740874,25.73136398476316,13.921725258438617,132.5191198812724,-30.146753051855406,391.255205661696,9.792074558840037,-108.53013417676458,-1.7896776175998006
355,5.581719070303668,1.446721457707663,4.540036663419496,-2.695437067253065,31.15586843390471,9.215818828580504,155.1995084882352,28.17005370195631,386.0993453580016,12.113430473031638,-113.3792144121261,8.49150159269028
356,8.056047427211505,1.1976787827244249,4.945442842987587,3.256085944864865,30.573625303157495,14.19546739936278,202.80310053766996,-21.09112273235986,380.1096421020383,9.049516320243715,-133.45360518807254,14.187289915908426
357,8.718723388162925,-0.44172408896797566,4.593927429081055,-5.879021113089435,27.194532999470606,6.316115043273986,230.4312572811422,-19.196580607310676,375.61213225542036,5.146055912968948,-142.4689955363301,19.279908175982786
358,10.247839219190276,0.22978874649770875,2.5446840181522763,-2.5514319008119064,26.405276095610127,9.506656846792398,237.45815830381298,9.697386510456544,371.7600275737878,9.31826957930911,-149.80499305510176,1.6752805700954185
359,12.118561932926077,0.4651317554848081,-0.22461537350953478,-1.2869179872536318,26.533571387574337,10.37388294845631,237.80551288327945,-9.41383651541629,372.0581585266185,9.259257800163821,-158.86535367273254,4.285647013876558
360,15.497986131422282,0.29203286689317953,-1.3574295720194498,-2.6946587575625296,26.37167034274485,8.98813561246834,230.29350464509398,-5.956116556919547,376.84567276603264,7.262101445424397,-164.90773009316442,6.53562373900314
361,16.779999427963475,0.06052621030085429,-3.3727587106921963,-1.7923164991903089,27.10593872231277,10.193997683666026,213.25471189301493,-4.7877597547400725,386.151016023059,5.244035745553151,-162.54203508994127,6.969008435107591
362,20.609240523846662,0.3982436745931522,-6.551019702654386,-1.8038435826105286,24.34572095651271,9.97155868378049,211.79091818801962,-9.597225547025094,405.39126021026027,4.161946706112016,-160.11561631440898,10.553973161441204
363,28.81996637996482,0.23936476605610357,-12.461391299663344,-2.399924869223468,19.96866372730245,9.461498524050743,232.37550233507756,-7.946870981035633,444.5030575283773,3.165900031462958,-151.6204842475571,10.0139077732215
364,11.274401861854628,0.24136233503611734,-9.511280969044735,-2.3366532339707806,-2.5447686795898683,9.680018784429114,230.9183044565257,-6.245557738009965,453.5354816559872,3.315751084882498,-137.22704574159596,8.444251404529831
365,3.0641876648945354,0.3000031627183937,-18.365435108763798,-2.1386466574924117,-16.38640732727891,9.767310995333636,173.92926199185533,-7.824417057044045,350.8158412580057,3.0430159867453535,-101.90981632212039,10.014380724244205
366,1.781809499263908,0.23600875727761475,-7.650249358014549,-2.3242858232301176,-18.80113637207604,9.60834102879559,116.6286415969613,-7.015167096743883,245.79464520516743,2.01899694005583,-52.13668114066218,11.210328664898261
367,5.5927417725152635,0.2064550646447239,-0.20046665549786855,-2.4122080789006253,-11.978539277872308,9.533534296587801,11.623749327801063,-5.78768240816106,159.58937299694583,0.9136754489541492,-28.75235281540069,11.33162080777694
368,6.477554901616377,0.21543221863815892,-3.997231173675,-2.4236015644872766,2.6291392353609266,9.46682727872678,-70.12442411498002,-5.415910114690669,76.58227716096746,1.1630023723557976,-8.182470036024494,11.680311265159531
369,8.462128355217743,0.28210494671001174,-5.977301554546099,-2.410477798195851,7.8809672257900925,9.427854392715636,-94.08272292828427,-4.511744115754407,0.13916885369822865,1.438745009718823,12.54805635791551,10.118379360948449
370,11.508216733446547,0.2743780853971827,-5.1260332048327495,-2.24827947174331,8.95435602289638,9.597368656675782,-99.37050708997155,-3.6005521848099593,-63.02622180942742,1.0532506053320223,38.51185206051725,9.280453798985969
371,14.54754413801556,0.2975098691167203,-4.5214391126879905,-2.388156316900902,10.086220242152635,9.546651098797156,-81.52825068963202,-3.1712953857254504,-113.07382815299809,0.867715342217095,54.723752109369855,9.278151743889484
372,15.44432639709432,0.350184639291919,-2.92513918384156,-2.4117402049931966,10.32298212127512,9.560799862899414,-63.27262270262349,-3.4737180757773656,-148.17236008648072,0.8149570434407309,58.782835911746,9.699092643484393
373,15.532730530887642,0.26880317930884623,-2.2908436539906836,-2.506478561447246,11.05128645639481,9.581980625264734,-46.7134112548471,-2.493114924776783,-167.64220783722527,0.5647454865123782,60.23178000139617,9.631595830709024
374,15.323218719707699,0.35008491276630993,-1.746377452764422,-2.4688734217305623,11.333977171291261,9.566376618503298,-28.028340162205378,-2.365557787169482,-176.96076502070008,0.633556068588995,58.05651273281809,10.105048847672109
375,14.602359674343637,0.3549004041183907,-1.4100999724234369,-2.3409545812884227,10.888863731563822,9.531136063602558,-9.80276700889131,-1.991366051863727,-180.64834476699414,0.8257140121582383,54.15694120134708,10.692611090866775
376,13.279622645520565,0.3071905053651825,-1.0665379678171503,-2.406742889031939,9.272883632352244,9.565903259033595,5.136880729773129,-2.308835552380462,-181.83512536754267,1.3597921874657481,50.93187733611551,9.617183683131847
377,11.578645729749322,0.4266338527959955,-1.1667662872988707,-2.49264054013681,7.41072688394358,9.575533600424203,14.707805002395194,-2.367708895771459,-183.0116001433484,1.5478254199445416,48.93298538272776,9.853029225230388
378,10.21543328770643,0.3741667967670154,-1.557318030571856,-2.2695475097361526,6.099178135688163,9.525178116050096,18.966835735674167,-1.9278696930945571,-184.49869186106906,1.7467721424692029,48.997401781254034,10.856164837620042
379,9.112437389773154,0.42677054453060304,-1.8283808695319614,-2.3549059950321034,5.19010023448219,9.549739051871818,19.485855610845285,-2.303644722440495,-187.2572759575811,2.2862220985516997,53.10291930074598,10.078904444763156
380,8.141275934372835,0.3165014025493629,-1.9678804286888554,-2.4454622388192826,4.610141695082047,9.547280824332631,15.306193933604542,-2.7916549013208987,-191.15012381129415,2.720918894166498,57.6428638104741,10.315923694690431
381,7.342079663109123,0.4223680798758793,-1.8913812795023695,-2.363133393637648,4.198407187659642,9.59759880914907,7.56868843055063,-2.8541359665967763,-197.21463250424802,3.0865274933051867,65.5516816320269,10.192131518655822
382,6.599127582088508,0.354741330693862,-1.7124354090171214,-2.4550904101138924,3.989920379637373,9.54705759642697,-2.7381437472802337,-2.973672893288347,-205.16006233124628,3.1533135847620377,74.07783753811219,10.489948227540228
383,6.141572776995323,0.3596186140270915,-1.6056169584634254,-2.3837823678120698,4.4589515588424815,9.536465883596692,-13.54093245419122,-2.669980560769361,-214.93657160137582,3.391776038555295,83.11536478801065,10.18517616474493
384,5.8831471967662194,0.3261154001393669,-1.6529574071480755,-2.573151445361712,5.014561533569003,9.591923166127835,-21.732796356082368,-2.8746868513909423,-226.50674058069106,3.6642524389578797,92.86441478523409,8.160460250851564
385,5.76352344614312,0.19613079945145948,-1.6218461238239523,-2.509324591386204,5.606720340171848,9.472987409776055,-27.980728197475006,-2.321852858642947,-239.49232568777745,4.030072299349824,102.84592254465298,8.20763845738659
386,5.737375929691299,0.19178085286027322,-1.4671397045915873,-2.2996079304674875,5.977085877124668,9.46053076070249,-32.47570422678807,-1.8361867030850085,-255.30196365614327,3.7137050730235734,113.63884320275797,7.730796964689215
387,5.858063052433215,0.11459802072755312,-1.3267420705560888,-2.4530572845829868,6.497581626270369,9.430027267159028,-36.2286185210064,-1.3637456369584353,-270.0536870002349,3.9872329051863304,122.95073889239019,5.935929583367661
388,6.134201594619718,0.20186869979332112,-1.2776775833655933,-2.3973591798239817,7.224609386489925,9.55244895167051,-37.90399414952044,-1.2485591947119135,-283.5398240790333,3.852167011252583,132.17399991563744,5.222728800498122
389,6.353850454726732,0.20595592560537318,-1.1007329327930948,-2.5179753793383495,7.9383953301791825,9.506408845864549,-38.037745213846996,-1.1363027555438123,-293.12904419624493,3.7731872072244625,140.62230113300635,4.211144917667451
390,6.364828188291338,0.12861983606089575,-0.8850789465506005,-2.5867044432172666,8.482425606581245,9.431780056790432,-38.08995854863705,-0.9006369664512709,-298.7405359790461,3.939515626107112,147.7469226347412,3.2537565860692155
391,6.200699754532628,0.20125571363344058,-0.8015741225965529,-2.451418271886203,8.72544611811669,9.49597403175909,-39.03670091759773,0.19343559893311255,-301.2691807017521,3.796070267992441,152.98833817981554,2.2909906344045017
392,6.0217721936511435,0.20596418670037367,-0.7333324978468805,-2.4327326705047185,9.01110396571328,9.481355636800469,-40.162625264463365,0.6154406610259012,-301.8070075042657,3.8432494324378426,159.09764720621826,1.5712623966301584
393,5.68355592084779,0.24482245409336817,-0.6831089145368827,-2.4024871004345014,9.461792339060068,9.542577533919683,-42.49629744245638,0.43492014888480374,-300.67467501178186,3.4216300381979825,164.1423666926599,1.9369311397375506
394,5.354748730060903,0.18764646207329852,-0.47942363065285026,-2.4111211411747755,9.479440134892572,9.571857477972719,-45.980442866349144,0.9219010394526276,-298.9024912730241,3.413387653423312,167.92800585780034,1.5741869665692672
395,5.010138800330418,0.14417750946805624,-0.25261398609701474,-2.4692044689097954,9.683826387954571,9.53969282965993,-53.24630286870368,1.0986046498524802,-295.80494254375566,3.4616227811411,173.56981955727687,0.8573286727773854
396,4.899308564062879,0.19114063833316208,-0.34734683606062444,-2.4957817388021817,9.719194361650194,9.444221848692324,-60.93214202995686,1.710719180363811,-293.2140672234095,3.4569029523674777,177.2802736455182,0.7311194079273644
397,4.584023006068911,0.13941356684405112,-0.20644391141468135,-2.412321936338016,9.788736012094585,9.524624782935698,-67.88507397497973,1.6455919575042626,-290.3217924732492,3.1449950950983947,180.87968020783393,0.3797046604143101
398,6.984427551154817,0.23929909673310726,0.5615015580659716,-2.4758848171245185,6.368558941026739,9.476880900883662,-82.28657326760525,1.7701159032800093,-288.95569524365754,3.269965019816956,171.62189207267636,0.5548365621759191
399,7.988502370773987,0.2723352901131701,-2.0874062588532185,-2.4773951441969695,10.085074072967364,9.42411939830999,-78.42389221485432,2.2522586277099386,-287.18866613407437,3.3760707562778385,182.71937800352396,-0.28548928750861424
400,5.2804982981618656,0.04864386484111019,0.48028910646673684,-2.5490728760213246,9.889725928766216,9.57987775133384,-99.40822087795885,1.816603316346071,-285.5218237133658,2.7555901058136762,188.13324161992358,-0.8658823658908832
401,4.509009083778204,0.3154471485022839,0.6554611103323496,-2.4015299224923616,11.336390679667486,9.408334252460595,-111.47038100138631,2.1302068394306097,-285.13237946134905,3.37762962533571,187.64180890025938,-0.22449130527909894
402,3.8864676582070814,0.26385727515908586,1.0833944374211335,-2.360234358172594,12.31510666522086,9.517951866894267,-123.29008438412694,2.1920036234518188,-284.14958867551996,3.072285028589166,187.82094292750838,-0.16108051791867625
403,3.4827676538182004,0.10075087516042722,1.5346125274894633,-2.460871818974869,13.435921539073599,9.492280593512097,-133.20414744236467,2.504816626816143,-282.09180360395874,3.019784856121829,185.26592652396064,0.43078940617138206
404,3.30585101173864,0.14822629432434262,2.310414922781688,-2.5236659000527415,14.54069712450781,9.468869092785638,-143.95812326968883,1.6316315032614177,-278.056630905796,3.366569688582968,181.35324360451452,-0.9919692396048382
405,3.267535129727077,0.17205473146352526,3.325804314287139,-2.5097943843185617,15.818373355370152,9.454139083874187,-154.02186703518566,2.1851785743523244,-273.22283610753016,2.632564373550047,173.674128152917,-0.8087692959341568
406,3.3423195878565704,0.23071600216479912,4.1967547622643675,-2.401671897140114,17.18638058806277,9.57131991995837,-163.0941957023556,1.9418573755367272,-267.18880187071784,3.3101373497513547,163.3767153730159,-0.6377712531791279
407,3.3393199289797195,0.18719499442017581,4.902142574565808,-2.4646578146399483,18.589163319823335,9.534454644527875,-168.4908204653706,1.6958658353069376,-259.8396676739975,3.0652997581645294,149.93925214206996,-0.6905811727550474
408,3.0534541552573846,0.16276718530472797,5.8896804304061865,-2.4615310643001136,19.724280876524297,9.472626729577279,-171.1396857692772,2.113777966018462,-252.9022899854153,3.5338987162877675,134.89225287621082,-1.8332482112634458
409,2.8619092418969845,0.15866099222044577,6.75391545012887,-2.397786872224587,20.36601878988196,9.533779634220409,-173.54936807717704,2.0537104647771214,-248.3171763849308,3.719861850394461,118.79224677521512,-1.7164041859140855
410,2.4955432658603183,0.10556978093019902,7.311268289448745,-2.413423702250808,20.551055950990094,9.482025853176498,-176.0792986866973,1.8617253755176526,-245.57683946941606,3.4625898048381267,100.68328690185713,-2.483608711318948
411,2.0123741065617358,0.12010434948650765,7.868620516385452,-2.3702462023111273,20.418688766930742,9.49082108958053,-181.0695356374795,2.2844817938968234,-246.98476149045388,3.9393244031370096,84.06019052820757,-3.1504693973306614
412,1.3530679333756543,0.20633148068242635,8.11341869998616,-2.2989864826199913,20.537693794773826,9.484236612446882,-187.83356952469862,2.10162404941294,-249.36777305695833,3.7585276980094355,68.1321061516419,-3.0264043966826564
413,0.45043515472013007,0.08614380844574011,8.33318102923935,-2.419067819379443,20.581228880572674,9.448896104810697,-196.08525628971333,1.7301781533826655,-254.24186338219232,4.182546625230206,55.70112009905688,-3.3855863517884184
414,-0.6070332558582129,0.1632215609642363,8.35358641070819,-2.308566331303915,20.701052580179656,9.48000614884459,-205.32681113370907,1.8502687794867856,-259.83201315773755,3.933113485971278,46.01525289726362,-3.62107664759904
415,-1.9327833979120612,0.20264661887765056,8.623035777645962,-2.4232483928827904,21.06012851669885,9.652981772613648,-212.81825187655457,1.2976777034903768,-266.8845028916242,4.2406854231290385,39.02154906987545,-3.6787480337288416
416,-3.1764996637348375,0.11551069287556627,8.893087752548789,-2.4074973255577725,21.88926118681254,9.524781149001472,-218.1450360733354,1.1696122864096723,-276.2331096734703,4.2320362342413524,36.812264790874956,-4.212564794041026
417,-4.206016901386881,0.13962810982565182,9.223867470431435,-2.373754241465811,22.870551223418456,9.538389691794137,-217.70315502888693,0.684981225921425,-288.9998139863369,3.99945083843001,36.51238829600202,-3.6081770608308577
418,-5.319450942918196,0.23503138514206717,9.859167360675954,-2.412663043646041,23.257063147638014,9.51896171906022,-213.4447000135829,-0.10928720287011046,-304.5186552253919,4.00804528703951,38.899252790317696,-3.3012384386893103
419,-6.42699969959064,0.2923966304474307,10.710604748094879,-2.44129065128535,23.66598185714958,9.523597082315185,-206.69060380880444,-0.10457390731842069,-320.12621627725815,3.587640719028251,41.90131924308089,-2.818808621797381
420,-7.7193221098940885,0.11669628556863786,11.683821785805266,-2.2995097460825917,23.964115840513813,9.632962967207668,-199.5043394262371,-0.9018994719501815,-334.3957468732151,3.4686484902495702,44.745090372612665,-2.8075210711489476
421,-8.875600018404741,0.145414187965047,12.412350538734339,-2.389456986180142,24.394481195048,9.662583079709679,-191.01204642502557,-1.5053875574370834,-343.71561187733334,3.6712255858756606,45.92676212118234,-1.8514891407571534
422,-10.236109113286014,0.1547766338773029,12.77488014539404,-2.2433749629535664,24.969777575411303,9.593652043383743,-181.8191221141027,-2.1807252319711017,-346.9280055479943,3.3058313068284333,45.51880125161701,-1.8971697312954148
423,-11.754426753058722,0.07909463328032611,12.994706842504502,-2.159993139473972,25.449898489031654,9.669510716575186,-170.2188394232819,-2.05597141103817,-343.8616658114856,4.042947026497211,43.53462853989548,-1.7316020494907194
424,-13.42494066743842,0.25303274209374943,12.78789062834845,-2.1641694099233146,25.53885181741041,9.877827380639483,-157.61136186935883,-3.7587035156353172,-334.2606659634554,4.1361296301458275,39.78856631587634,-0.28464189219866587
425,-14.21698127330142,-0.01440692223983697,13.049564071170929,-1.9823751727370522,27.771244882810663,9.873004486387977,-142.47035455019406,-3.971388369594709,-319.03126088498743,5.618675111933813,33.43889982165655,-3.1609090443440193
426,-18.349134383387952,0.1366763602382141,11.087633560721448,-2.0837676792203923,22.106564700431065,9.667895379236896,-118.07204299599367,-5.313213517636031,-300.02329344557177,5.8204120172972384,30.018007296600306,-2.4338372540406943
427,-18.790324263567882,0.27832942931282983,10.059408293553483,-2.0413960821691184,23.219410785194725,10.004655341250734,-103.52091402747445,-5.504114074534925,-279.3775758173012,5.932660567825341,23.680951954877585,-3.0877114467633158
428,-20.757475358975498,0.11209517770089847,10.168992473324893,-1.9567694439696022,22.997950958281454,10.11950847752122,-87.2762434268172,-9.30597577342971,-257.95322801679123,6.01151999935953,20.487342893010396,-2.983951248100567
429,-22.712696212920633,0.04435741688177563,9.253893205848044,-2.251379250873496,22.340470721771283,10.687186952410194,-72.61037756602475,-11.956679729463174,-231.76708924313021,6.735570688464233,19.992725844160205,-4.27254680152824
430,-24.805817348717632,-0.259267126981624,8.951699774095777,-1.282532661281401,20.35035155188721,12.39843400929088,-64.76829757667832,-20.17255526672593,-203.24950894697352,9.85675364926392,20.62857762805959,-9.993642641752116
431,-26.68180666404148,0.11783067323196333,8.656370166364209,2.010876310228595,17.573782921809297,14.146838243130869,-66.49751672954532,-39.880881944213094,-173.84374396336062,17.333375986783977,22.47681698417884,-18.082138356425432
432,-28.101419068120915,4.472472319388004,8.842100097506552,-10.576822210965805,14.877534848879906,15.361519211341626,-76.64129691524623,-29.74714220563469,-143.5658932704489,33.75815368443381,25.965630724814968,-11.378477860509816
433,-28.811812640477775,3.1018647089296607,9.61693409243303,-8.112544129214811,12.400635659725367,13.732068166779278,-92.87608797230467,7.411671338790415,-113.47485967637472,55.25858456321944,28.513211213519114,-37.67950476478239
434,-28.80710862258971,1.2407712699719229,11.163173695674399,1.1597816235544145,10.700909106072581,13.132235241835689,-111.60610480611214,-4.334064895870935,-84.91146003609478,64.32859106317036,29.102938411061736,-29.287714465035286
435,-28.11866604541868,0.3879742709868806,13.068794033627844,-2.8971478154771746,10.360402574026779,11.360900414073667,-130.12390634426956,-13.02048662215575,-54.01515982496417,67.19582578506247,25.345534956283007,-21.256783248323142
436,-27.009975483295317,1.4256755972748145,14.935734680973237,-4.820862877823894,11.163892061092783,12.484979322804739,-140.64200970550726,-6.695782814807069,-25.677867152618063,75.05589170088489,16.13946354558905,-32.817868954251175
437,-25.986260875133812,1.896811072824536,16.735728286940937,-3.0280190570539713,12.352814926987712,12.789194338412095,-138.72669345755503,-8.320879087212882,-1.8440961810266834,83.19082751772783,3.10569778024823,-30.1862205592645
438,-24.86285063888143,1.6819423438947565,18.106311196290022,-3.3508565298469297,13.881287313741948,11.794012598707488,-123.47243958324827,-5.975216255855125,15.767939036702247,90.15863105688712,-13.234348118865666,-23.182344899827903
439,-23.804105427599374,1.5012149596629658,18.85899109445148,-4.062014606444593,15.270572052380057,12.134883239887145,-94.2781929441873,-0.43900309351838274,26.522079525700878,97.25921267895167,-31.625477637912066,-21.990386895571028
440,-22.873690615010695,1.8429804268928747,19.004528717663625,-3.476861695401357,16.146730310087907,12.78171762970458,-56.51206503206906,0.47959475619207187,32.047399698530405,105.4318608905926,-49.67715479138418,-16.534627668409357
441,6.829046547452452,2.076614239857069,20.872557842463316,-3.546013683622729,95.6949049063087,12.713715996522538,-159.8533177124569,0.12125368006104667,124.7195389638987,114.30058548691167,-26.328923295861767,-10.062955952131936
442,-16.385437422147277,2.1282367381432614,20.06916063388731,-3.85232013537597,-6.635356053001201,12.688928841512272,287.6264951100051,3.3802042034433817,239.78235061282342,123.09015767194929,-149.46671189348066,-3.7526757229314347
443,-35.40559204840319,1.9986801815601323,-1.9737104149296956,-4.0982896365005725,3.28264952427404,13.285123278579986,148.45930700932013,7.637821497622285,225.6730745501223,134.43373236899066,-109.87036986597442,-1.8372815453782614
444,-24.030339897558747,2.9608060325931223,-5.098374135675068,-3.3934457289069884,34.403435729023954,14.859413744824312,243.67271090663752,6.322589335966206,258.88789962810813,144.45092309561588,-23.095019736259523,7.067815520426485
445,6.110273628541768,2.7132501308211943,-14.99332000658849,-3.1335133653139713,19.39599014211326,14.920085832771067,312.7025299817065,2.4854251900856092,246.55220583507858,156.70730164949342,-17.302088860925306,21.025157140096177
446,7.751170804100875,3.7700499508884326,-3.3903936112200035,-3.472691293158583,20.139752697948452,14.98650094948511,312.748900509544,1.1900553943509,218.64242888547452,169.0808949112249,16.53109067501336,31.67868236108602
447,17.568985298850897,3.8357604246746475,0.3289729407282191,-2.5072679260859387,14.605984813975894,16.250696542210598,373.33308921024553,-0.7025792576127533,204.12221098799836,184.05355383786826,-25.612728212082327,43.78603108845681
448,15.076510110675565,4.354788397376085,8.358491493448549,-2.096717010550132,4.790200119691844,16.984193089409438,395.3142444732399,-7.396949220235022,221.2402507245043,200.52646279491856,-78.18310283990944,60.092851328269504
449,8.699778697082774,4.36085182330084,42.17564595418546,-2.490260425030784,-37.51378017440034,17.256818685739233,211.06352982423275,-12.15649153635106,256.7515093446757,220.37013753944456,-318.6479388236003,73.46812254765744
450,13.637499741121799,3.7185413420936344,5.970040930748557,-3.241387054332457,-12.519262134037115,17.325912037488518,-18.685992327001,-8.85352760547752,282.2260207167117,240.61207698607578,-168.21838673281096,83.46770717227807
451,-1.6596968311730114,4.187392887883263,6.966199951778808,-3.2170608594356307,12.014994458276542,17.898366909149185,-13.484221410020371,-2.91109753243806,295.7207806453684,261.4188926336203,-169.9130537074489,87.71623861775939
452,-8.109295015264488,3.8792351352210366,8.163458004499704,-3.7437871019743265,18.466381306525097,17.818052028544273,-14.197767963460448,3.240220873693726,273.1499969903492,282.95823923901264,-150.48771426376618,88.32113167041426
453,-9.791883724229695,3.7420347477120903,4.5834016409323315,-2.369149465542079,25.41971049256747,18.1481853432516,35.25408612369797,7.069678253383206,224.4124945859941,304.7265832627397,-167.92188717356032,83.83434022208192
454,-9.251361276705161,4.517506162444908,7.470522175435306,-1.3496490280518885,15.124573285591028,18.47475819730838,52.15891447219797,8.061690960187843,190.75271539068797,327.1338739348577,-121.82551094879015,83.77498769048869
455,-7.243240403818033,4.2505850538788685,8.81089124753251,-3.0482191373805625,11.018437927351924,17.966946648467815,34.934271984311785,13.861570286928684,169.87314560853332,346.7441544272921,-49.644302776945054,86.07950866719108
456,-3.781960302281704,3.993048164944927,4.577065730293733,-5.544925526189703,12.524955098591711,18.82027925445136,24.222288132676017,22.554110649341418,151.43364837885397,365.9935451643718,-26.56077839481976,71.51688941138057
457,-2.0924804223360995,4.496021191347816,3.7386614925157136,-5.645145570712585,11.72224689566608,20.07631453958254,27.507707006742542,14.361698219888682,133.0021852231517,382.06362063550085,-27.223580009099255,67.44044665836374
458,0.03159065474803362,3.5031950447267977,2.066486688707632,-6.815246869623998,11.50652308517799,20.68410284654021,31.236586700969095,-7.952566126256628,119.5425769001402,395.0876620111371,-27.272180881554203,68.04133105954422
459,1.7963212468932916,1.9734834940083212,2.009295209986503,-6.921948333006116,9.721088505857068,19.12101763421878,34.21450255047424,-38.189076841288674,108.84723967588643,403.12880068298875,-34.790791535904226,79.76197713695197
460,0.5267958638027666,0.9717537468788612,3.4948481066115664,-5.522660776870515,9.390687290334162,19.59248610863884,17.52870233881146,-47.41168333108639,101.03097272637659,408.8609572095549,-30.866015998554015,83.29402114665402
461,0.44242544933389716,0.17402176907044792,2.2745201959394223,-4.094801382512181,10.572568621478643,20.424175059184517,14.949139219087957,-48.38261848175088,94.37428589736,416.8561932440042,-31.638551972490976,95.85459278629284
462,0.7179874226399693,-0.4242646167374003,2.928469232202013,-6.847237181089104,9.557209627191286,24.637792572787507,15.91495678895318,-51.545973453732344,93.79489301374291,419.4466797292716,-30.3195525740527,92.51822962958182
463,0.5572411888041592,4.3383803477145175,2.808718058347221,-7.809130908448947,9.821204624127954,26.457498956670857,17.542871262350236,-88.00187565873365,97.4163886988117,428.4221687573551,-23.23271628337156,96.27052245279882
464,0.2903100981766065,1.7629631164308555,3.043596658324528,-9.185724869979135,9.892792770541696,27.779511057104138,20.393598246793992,-124.01136712607082,99.37335730216809,438.904754824184,-18.503364375796117,113.25637508791011
465,0.39166910818674205,-0.4011238682417135,3.3559085437063136,-9.084638999114247,9.999266986818505,37.75866728219951,17.264452168256387,-131.28184582861934,100.25932765708673,428.9991726293494,-13.04664893527762,105.04361060234339
466,-14.589411218912458,5.292201269689525,-1.5637649827182731,-2.8384042500083755,10.7794153556013,39.97841817320815,5.384248190624803,-204.9062882577755,31.466951861261432,416.37320852784194,10.67887592667705,122.07226136226339
467,-2.1316773140528458,5.05528218473175,2.017774255433888,-5.525579845754463,10.069452783158532,34.23222761694759,0.12256039207580179,-259.09505630649295,15.562695079814807,410.93966830182893,1.5411985219085982,131.37414373946677
468,1.1608467603280748,8.558223643703833,1.06461815992784,-2.621761718867137,11.248802172320506,32.96106848653972,7.489490044823522,-280.37594791328837,7.066721013196455,406.6102381294176,-17.26430996994059,137.947248720576
469,0.5860094726946532,12.178742074726788,3.112219171721633,-0.4227710992036243,8.907359404560847,32.80543982543182,10.987229178286242,-299.8826419113476,2.5305156866009506,410.11878319456713,-13.464086029358619,155.68189369814985
470,1.4858723105856597,15.333996468914833,1.3616530634088093,0.9819733020689576,10.348481529903514,30.461525876774346,8.811724402942765,-304.4843298076823,3.692460301396115,414.07189923995776,-16.163299112750188,167.28128685323992
471,0.540352425113681,17.404267581724024,1.916322369625086,2.4646834847107857,10.051850443127865,27.053393610807323,15.03139047433667,-304.5966062386888,6.361831411678027,417.1668405259782,-14.764860706259219,179.9700143359497
472,0.4902021653586156,19.950325771352137,2.80089392654066,2.9393216900279966,9.269902035148236,23.65023835120514,17.085172016084226,-283.3865634713142,5.975061383547338,422.0516998808511,-11.214622635822357,184.3433892443024
473,0.5711034569943221,19.9618704383408,2.010628322051519,5.12344300237817,9.876617517522275,23.218633561670266,15.075295320518975,-273.95786743684454,3.895963039190598,439.2771078281839,-13.058651852526603,169.8053067891272
474,0.8448023546332738,20.32336539803114,1.6419616741027188,9.257320336608243,10.037612679824125,21.14391015668361,19.41195581255038,-289.9484475377055,1.217076587971115,464.2534418897083,-17.392266808988545,158.30974904029713
475,0.835485217364082,20.112067571523767,2.0371389384059753,17.11887075189302,9.727503759315042,6.113728419649314,22.096543875951586,-283.0225636445385,0.43740708981011883,511.96041332174616,-18.82712751326966,142.62328391952482
476,0.8846120133172424,-3.0621826182316467,2.518693405904901,3.5321988019256003,9.35247775308195,-2.1589877289098096,22.0417695948303,-237.17158919547828,0.5263749734559121,437.31331928425874,-20.266961140369393,28.85445487537406
477,0.8829457395995006,-4.877414980603899,2.4162920229749103,18.891667867902232,9.475354335289262,-15.104602263359046,21.310804041718256,-181.262020181679,0.6515418952184859,302.6924915013488,-20.209816342938442,37.76499956199249
478,0.7673712395826356,-6.738597977345022,2.4742324204034407,3.033094676996662,9.613392517510576,-23.41656876464663,21.676407935600018,-86.07004817162459,0.16983614037774902,156.7877813778262,-20.57459755867955,-63.22500071747564
479,0.869492443836957,5.812909192675201,2.5116489253216248,2.3082428993794237,9.438296545656897,-10.654064651050158,20.52069651920022,15.377829931743609,0.606316903870572,38.01467391808916,-20.755822633443568,-98.47992000698717
480,0.9030352923270795,7.742036829307095,2.5533433737720026,0.8400443999070447,9.458509639961388,1.9276555599926435,19.907284491092113,91.80992430481646,-0.18471521775510477,-52.993101055764846,-20.530829855535195,-134.52569397289884
481,0.894793196548021,8.592024324146621,2.659300694578626,2.1987019517684727,9.378614700088445,10.453563374589208,18.50350968160359,121.09729865706588,0.9523243830786622,-120.62240382049175,-19.14254763011286,-157.69270149023026
482,0.9336171852145793,10.940337666786439,2.702574942249966,2.104930047673503,9.341503720863562,13.294985625148549,16.97450134907978,116.28308498489969,1.5968650261997892,-175.5673670342929,-17.40186341863323,-181.47704817715947
483,0.9178568447054845,13.701780274360072,2.9121845009428227,1.2689655636430341,9.095560413104508,14.864569530238198,13.306221023159186,102.33573864685346,2.288943189350687,-212.29378183767398,-14.293199553712297,-187.70273505687425
484,0.9367821968194961,16.662566504460834,2.920708161813906,1.9059375080244114,9.124654574688382,16.368581503975978,10.430880784020722,71.8136866789091,2.5586890062581285,-225.07175782625023,-11.605821138040872,-172.56092043516662
485,0.9172718052673138,16.75468519937919,2.9241784536170337,0.3543789476582367,9.172288653385634,15.850556295581102,8.292914545605331,42.97548310412147,3.0890983259106832,-227.39396551117,-10.050803374847264,-161.410670420964
486,0.8251972477331192,16.09542326055004,2.906759934691895,0.10488371685738322,9.304752124595668,14.887133714595885,4.942206886982241,22.001842790417232,3.593461573545302,-227.52592499317907,-9.884848185733475,-149.13913981945905
487,0.8948642055160215,13.91757045962808,2.6225499671079646,-0.33625514021942354,9.344579117954105,12.57160986367548,3.413412383285534,-0.6085426076462852,2.503428512306306,-227.07124297046948,-9.6101157116486,-135.13244791454065
488,0.9706078987203541,11.552171311155163,2.6429132065794163,-1.0927181626336695,9.446399012662665,10.233671252389769,2.688513824132283,-19.279948546733287,3.133529399938982,-227.46759853949987,-10.506240809745337,-119.79170843515762
489,0.9038085760026578,10.299707869236927,2.7129754556739143,-1.1282586211385335,9.480013492275011,9.196476835090873,2.5044781626037884,-36.91394412539115,2.9499480930379582,-229.28188572661116,-10.389938627234178,-104.79781384039141
490,0.9140786038302066,9.356187390824786,2.715199503395015,-0.6108620278402206,9.398842300645441,8.325084715001795,0.9813323059457426,-52.68529396928503,3.0217238083331566,-232.6364302589406,-10.458684274388041,-93.4908799811976
491,0.812959408234135,8.943823617696031,2.680990600948225,1.1288938424131107,9.459160139599085,7.674753367709078,0.6135205180406741,-62.82802977435198,3.4332362655176047,-236.40510755520242,-9.614636072884908,-83.55324873459706
492,0.8492153820999423,8.217985219415796,2.5450207581738824,1.3968190387848272,9.596415133417032,6.5997148403547765,0.06359556373771508,-68.93533739301392,3.7887068137399145,-241.3138814952836,-8.95263325266827,-74.83696083094414
493,0.723740528399151,7.5515779093234245,2.3985412817411853,1.2296433527596276,9.630820016631123,5.329903132537504,0.48606624987143193,-66.59759580305676,3.94737136903741,-247.08599271860902,-7.867098558029209,-67.99358667190812
494,0.8376466171481745,6.709709161181854,2.2936597178460936,0.892562670542287,9.654755734308214,4.293105886958636,1.5850653072387832,-56.0159523421457,4.547093351685933,-253.50411274650668,-7.791470201797557,-64.69016026850672
495,0.798875801820847,6.03181848313885,2.315267256186054,0.920598781426651,9.73110368790048,3.874522855010636,3.0485976046391112,-41.95299774548537,4.840422442864961,-261.9798583966171,-7.7178853533407095,-62.705589526832064
496,0.8121886828099646,5.330699709268391,2.251816646433091,0.9509077970131623,9.806909653533207,3.5372199511102864,4.936377975815213,-24.000433123578052,4.702040589425851,-272.3671051344416,-7.467674972021167,-64.1294942320811
497,0.7836336531959053,4.868105529868861,2.2384965547145668,1.0935814194907336,9.782398099974069,3.658807006012562,7.198210925559549,-3.305655360104729,5.136443212596752,-285.1199099916045,-8.647887605842799,-67.15610089243923
498,0.8433827361927753,4.648435038664441,2.407630101126636,1.0443775181744368,9.623019651915175,4.286464710086266,9.149683575756173,15.958710430462213,4.8911692428687,-297.5313835412419,-9.179228457764331,-72.07471423876436
499,0.8455598340555377,4.623211543431831,2.6179785835482217,1.341008019752773,9.516096388097717,5.1793245523664835,9.943560267360985,31.795888068512863,4.6544804879750465,-309.4257658731452,-9.77785439037127,-76.24605646046473
500,0.7791681951295498,4.678757534845024,2.5830340354165693,1.3185202192247278,9.42854426082851,6.104547169855317,10.126447533772437,43.88184951439236,4.474484158378939,-318.444623755299,-9.959476725041734,-81.48775275431214
501,0.6800482073622534,4.758001594086869,2.6800258249552824,1.1911267251391031,9.347274798787042,7.035796727372694,9.574989262351986,53.82486922047159,4.645120506611734,-325.79607486659273,-9.180046262437653,-86.43201011331958
502,0.7356839778227127,4.68259585592968,2.6788352812274616,0.9026763870164071,9.548986274747975,7.827661722469808,8.96257183731446,62.489503940691556,4.575362805266063,-330.6790258053259,-8.52439977013322,-90.56620717502803
503,0.7751656180580168,4.478526369252645,2.631769686406357,0.6775908711793183,9.371788484839307,8.658003069063323,8.291866229995195,69.42975193993743,4.459331594699737,-333.3637743157059,-8.590446566588522,-95.48716983811426
504,0.7847785287043446,4.212521794608843,2.710468522504045,0.6664672797254451,9.420929774470748,9.452517289356416,7.865599067703123,74.23161335070996,4.7624478731366375,-333.82311868601823,-8.408632256847653,-99.70283098208367
505,0.765269205927212,3.8732926765934628,2.686208706075458,0.5086850816197335,9.449015194322454,10.11622002104572,7.1312637196863475,76.58704162275933,4.514660038560412,-332.60872107185816,-7.936550664798927,-103.32007722270627
506,0.7091167330589581,3.45646714984955,2.7319677455861147,0.6506011238195838,9.338868023622172,10.561764565861166,6.520846756210402,78.08217384913745,4.574677629602512,-329.6805852585156,-7.699462473559348,-107.1913255830979
507,0.671931897053001,3.1473615390039753,2.772519041954973,0.4960904145919406,9.243258262878824,10.82443803346499,6.027699177883742,79.81600621588011,3.955887762927093,-324.86787652478927,-6.990997645833309,-111.80843689458173
508,0.7093629601233211,2.8262063921087655,2.843690079130822,0.46266915599947583,9.388368125779348,11.324029370265343,5.663385436115748,82.16816883470119,4.142873367953673,-319.37629024082025,-7.110607104728962,-115.96750910722777
509,0.7515529162465856,2.6568263344339424,2.743745680127713,0.3158903192637329,9.416181200189094,11.704538172511015,5.23682202141209,84.952289024325,3.846422291888639,-313.3315273302502,-7.357760744335126,-119.9022070043648
510,0.7030162837459839,2.3775702248675437,2.681542647287125,0.10823198662822217,9.457665302424275,12.12032855315703,5.842700756352937,88.40060117753484,3.5876893640551817,-307.4906287934657,-6.7572476667855526,-124.85327036520385
511,0.7087101180422994,1.860883532082569,2.8092444345805507,-0.036542686652529376,9.440485971658177,12.723500648511994,6.331164477874087,90.79385174517724,3.7083797589093903,-303.9295594560783,-6.872406502467872,-130.88712931215667
512,0.7569701960962483,1.3704378542722202,2.824339619681782,-0.3111376470976863,9.398303586041541,13.643092850469904,5.843143324928085,92.30808403804222,3.2310565116918313,-300.45926683951575,-7.182523924110971,-138.87252366743434
513,0.7420327917501494,1.4335455431698576,2.785522496607729,-0.7072193280654345,9.440591780411955,13.30462771890425,5.906217759044971,94.23982446371613,3.359277177006145,-298.1942579643155,-7.540550892175466,-142.02442832257165
514,0.8330646590403838,1.4887283053596323,2.7718696547267845,-0.04659845832009561,9.408140205460578,15.117027463694711,5.301368873903394,96.0454766626257,3.7419772917372507,-294.6267763902451,-8.259388293685515,-151.44225710774296
515,0.7288576535968336,0.7585563811194388,2.886392084346227,-0.4989895530393088,9.37490928589273,15.454637273303439,4.752594124933397,90.80967398696853,3.325761511127972,-291.58264588712143,-8.569037883100497,-153.74755060169537
